im1name,im2name,cond,ori,mask,rt,acc,contrast,trialno,staircase
96-128F.png,13-128F.png,ds,inv,96-128F_mask.png,1.3519496000080835,1,24,0,1
208-13F.png,20-13F.png,ds,up,208-13F_mask.png,0.8563071999960812,0,24,1,1
25_eyes.png,7_eyes.png,isod,inv,25_eyes_mask.png,0.5014635999978054,0,14.736125994561542,2,2
20-65F.png,20-65F.png,ss,inv,20-65F_mask.png,0.5435498000006191,1,14.736125994561542,3,2
25_eyes.png,25_eyes.png,isos,inv,25_eyes_mask.png,0.49707800000032876,1,14.736125994561542,4,1
111-220F.png,111-216F.png,sd,inv,111-220F_mask.png,1.3562702000053832,1,14.736125994561542,5,2
96-225F.png,96-225F.png,ss,inv,96-225F_mask.png,0.5966120000084629,1,14.736125994561542,6,2
208_eyes.png,20_eyes.png,isod,inv,208_eyes_mask.png,0.7159255000005942,1,13.646572368403794,7,1
38_eyes.png,9_eyes.png,isod,up,38_eyes_mask.png,0.7826391999988118,1,14.736125994561542,8,2
7-147.png,7-55.png,sd,up,7-147_mask.png,1.165872900004615,1,14.736125994561542,9,1
103-135F.png,103-135F.png,ss,up,103-135F_mask.png,0.7425603000010597,1,14.736125994561542,10,1
2-8.png,46-93.png,dd,inv,2-8_mask.png,0.8003199999948265,1,14.736125994561542,11,2
30_eyes.png,96_eyes.png,isod,inv,30_eyes_mask.png,0.9756995999923674,1,18.555068267735685,12,2
123-100.png,123-100.png,ss,up,123-100_mask.png,0.7276772000041092,1,18.555068267735685,13,1
20-13F.png,208-13F.png,ds,up,20-13F_mask.png,0.8095800999872154,1,18.555068267735685,14,1
192-216F.png,111-216F.png,ds,inv,192-216F_mask.png,1.2725616999960039,1,18.555068267735685,15,2
2_eyes.png,2_eyes.png,isos,inv,2_eyes_mask.png,0.9646143999998458,1,12.637577710370472,16,1
220_eyes.png,216_eyes.png,isod,inv,220_eyes_mask.png,1.693237700004829,0,10.837880352311993,17,1
9_eyes.png,9_eyes.png,isos,inv,9_eyes_mask.png,1.0063048000010895,1,18.555068267735685,18,2
146-25.png,146-7.png,sd,inv,146-25_mask.png,1.1011541999905603,0,18.555068267735685,19,2
41-20F.png,65-20F.png,ds,up,41-20F_mask.png,0.9277721999969799,1,18.555068267735685,20,2
123-100.png,44-125.png,dd,up,123-100_mask.png,0.6343978999939281,1,18.555068267735685,21,2
17-38.png,125-38.png,ds,inv,17-38_mask.png,0.9759873000002699,1,18.555068267735685,22,1
146-7.png,146-25.png,sd,up,146-7_mask.png,0.6152789999905508,1,18.555068267735685,23,2
208_eyes.png,20_eyes.png,isod,up,208_eyes_mask.png,1.1264271999971243,1,13.646572368403794,24,2
151-87.png,151-146.png,sd,up,151-87_mask.png,1.1442740000056801,1,13.646572368403794,25,2
139-197F.png,103-135F.png,dd,up,139-197F_mask.png,0.961455799988471,1,13.646572368403794,26,1
146_eyes.png,146_eyes.png,isos,inv,146_eyes_mask.png,0.7546572999999626,1,17.183151257649243,27,2
129-94F.png,129-94F.png,ss,up,129-94F_mask.png,0.7235234000108903,1,17.183151257649243,28,2
55_eyes.png,55_eyes.png,isos,up,55_eyes_mask.png,1.3256808000005549,1,14.736125994561542,29,1
103-197F.png,139-135F.png,dd,up,103-197F_mask.png,0.6072083000035491,1,14.736125994561542,30,1
93_eyes.png,8_eyes.png,isod,up,93_eyes_mask.png,0.8143682999943849,1,13.646572368403794,31,1
65-20F.png,65-20F.png,ss,inv,65-20F_mask.png,0.741007599994191,1,13.646572368403794,32,1
24-76.png,24-2.png,sd,inv,24-76_mask.png,1.5188640999986092,0,13.646572368403794,33,1
17-9.png,17-9.png,ss,inv,17-9_mask.png,0.8409036999946693,0,13.646572368403794,34,1
52-66.png,145-148.png,dd,up,52-66_mask.png,1.3745119999948656,1,13.646572368403794,35,2
103-197F.png,139-135F.png,dd,inv,103-197F_mask.png,2.294976699995459,1,13.646572368403794,36,1
111-216F.png,192-216F.png,ds,up,111-216F_mask.png,1.0022116999898572,0,13.646572368403794,37,2
46-8.png,2-93.png,dd,inv,46-8_mask.png,0.7929954999999609,1,13.646572368403794,38,2
8_eyes.png,8_eyes.png,isos,up,8_eyes_mask.png,0.7130202999978792,1,12.637577710370472,39,1
135-192F.png,197-103F.png,dd,inv,135-192F_mask.png,1.0917519000067841,1,12.637577710370472,40,1
123-125.png,123-125.png,ss,up,123-125_mask.png,0.975746900003287,1,12.637577710370472,41,2
25_eyes.png,7_eyes.png,isod,up,25_eyes_mask.png,0.7842987000040011,1,10.837880352311993,42,1
148_eyes.png,148_eyes.png,isos,up,148_eyes_mask.png,0.9193240999884438,1,12.637577710370472,43,2
111-216F.png,192-216F.png,ds,inv,111-216F_mask.png,0.7291407000011532,1,12.637577710370472,44,2
44-100.png,44-125.png,sd,up,44-100_mask.png,0.6677556999929948,1,12.637577710370472,45,1
100_eyes.png,100_eyes.png,isos,up,100_eyes_mask.png,0.6965374999999767,1,10.837880352311993,46,2
135-192F.png,135-103F.png,sd,inv,135-192F_mask.png,0.6200131999939913,1,10.837880352311993,47,1
151-146.png,151-146.png,ss,inv,151-146_mask.png,0.817643100002897,1,10.837880352311993,48,2
129-94F.png,131-37F.png,dd,up,129-94F_mask.png,0.6002884000045015,1,10.837880352311993,49,1
13-225F.png,96-225F.png,ds,inv,13-225F_mask.png,0.7274099000060232,1,10.837880352311993,50,2
145-66.png,52-66.png,ds,up,145-66_mask.png,1.44926910000504,1,10.837880352311993,51,2
41-208F.png,65-20F.png,dd,inv,41-208F_mask.png,0.549993299995549,1,10.837880352311993,52,1
135_eyes.png,197_eyes.png,isod,up,135_eyes_mask.png,0.9106162999960361,1,10.036553609986138,53,2
65-208F.png,41-20F.png,dd,up,65-208F_mask.png,0.8811385000008158,1,10.036553609986138,54,2
146_eyes.png,146_eyes.png,isos,up,146_eyes_mask.png,0.7256295000115642,1,8.607263960508302,55,2
25-147.png,25-147.png,ss,up,25-147_mask.png,0.7508779000054346,0,8.607263960508302,56,1
52-148.png,52-148.png,ss,inv,52-148_mask.png,1.2003043000004254,1,8.607263960508302,57,1
94_eyes.png,37_eyes.png,isod,up,94_eyes_mask.png,0.6954149999946821,1,7.970863616012756,58,2
2-93.png,2-93.png,ss,up,2-93_mask.png,0.7624413000012282,1,7.970863616012756,59,2
96-225F.png,96-128F.png,sd,up,96-225F_mask.png,0.5955374000041047,1,7.970863616012756,60,2
37_eyes.png,94_eyes.png,isod,inv,37_eyes_mask.png,0.6345833999948809,0,15.9126704834961,61,1
208-65F.png,20-65F.png,ds,up,208-65F_mask.png,0.6961930000106804,1,15.9126704834961,62,1
192-216F.png,111-220F.png,dd,up,192-216F_mask.png,0.6922595000069123,1,15.9126704834961,63,1
94_eyes.png,37_eyes.png,isod,inv,94_eyes_mask.png,1.0003047000063816,1,18.555068267735685,64,1
13-225F.png,96-225F.png,ds,up,13-225F_mask.png,0.8792913000070257,1,18.555068267735685,65,2
2_eyes.png,76_eyes.png,isod,inv,2_eyes_mask.png,0.9002868000097806,1,17.183151257649243,66,2
197_eyes.png,197_eyes.png,isos,inv,197_eyes_mask.png,0.8448924999975134,1,15.9126704834961,67,2
7_eyes.png,7_eyes.png,isos,inv,7_eyes_mask.png,0.7293862999940757,1,18.555068267735685,68,1
216_eyes.png,216_eyes.png,isos,up,216_eyes_mask.png,0.74784229999932,0,10.036553609986138,69,1
123-125.png,44-100.png,dd,inv,123-125_mask.png,0.8047263999906136,1,10.036553609986138,70,1
46-93.png,2-93.png,ds,inv,46-93_mask.png,0.8199619999941206,1,10.036553609986138,71,2
8_eyes.png,93_eyes.png,isod,inv,8_eyes_mask.png,0.8666929000028176,0,15.9126704834961,72,2
2_eyes.png,2_eyes.png,isos,up,2_eyes_mask.png,0.8157532000041101,1,14.736125994561542,73,1
220_eyes.png,220_eyes.png,isos,inv,220_eyes_mask.png,0.934403299994301,1,28.555068267735685,74,2
135-103F.png,197-192F.png,dd,inv,135-103F_mask.png,0.7921841999923345,1,28.555068267735685,75,2
131-37F.png,131-94F.png,sd,up,131-37F_mask.png,1.119579000005615,1,28.555068267735685,76,2
7-147.png,25-147.png,ds,inv,7-147_mask.png,0.5626413999998476,1,28.555068267735685,77,1
197-192F.png,135-103F.png,dd,up,197-192F_mask.png,0.6753452000120888,1,28.555068267735685,78,2
147-7.png,147-25.png,sd,inv,147-7_mask.png,0.6630461999884574,0,28.555068267735685,79,1
49-146.png,49-87.png,sd,up,49-146_mask.png,0.8197801999922376,1,28.555068267735685,80,1
135-103F.png,197-103F.png,ds,up,135-103F_mask.png,0.7143263000034494,1,28.555068267735685,81,1
20_eyes.png,20_eyes.png,isos,inv,20_eyes_mask.png,0.5645649000070989,1,27.183151257649243,82,1
2_eyes.png,76_eyes.png,isod,up,2_eyes_mask.png,0.7412717999977758,1,13.646572368403794,83,1
65-208F.png,65-208F.png,ss,up,65-208F_mask.png,1.5666425000090385,0,13.646572368403794,84,2
139-197F.png,139-197F.png,ss,inv,139-197F_mask.png,0.6069806000014069,1,13.646572368403794,85,1
192-216F.png,192-216F.png,ss,inv,192-216F_mask.png,0.6382651999883819,1,13.646572368403794,86,2
160-76.png,160-76.png,ss,up,160-76_mask.png,0.6917960999999195,1,13.646572368403794,87,1
103_eyes.png,103_eyes.png,isos,up,103_eyes_mask.png,0.5513026999979047,1,16.835745595776103,88,2
197_eyes.png,135_eyes.png,isod,up,197_eyes_mask.png,0.5609439999971073,1,22.637577710370472,89,1
192-220F.png,192-216F.png,sd,inv,192-220F_mask.png,1.0175995000026887,1,22.637577710370472,90,2
135-192F.png,197-192F.png,ds,inv,135-192F_mask.png,1.1843211999948835,0,22.637577710370472,91,1
197-103F.png,197-192F.png,sd,up,197-103F_mask.png,0.719953899999382,1,22.637577710370472,92,1
129-37F.png,129-94F.png,sd,inv,129-37F_mask.png,1.0735664000094403,1,22.637577710370472,93,1
151-146.png,49-87.png,dd,inv,151-146_mask.png,1.0459411000047112,1,22.637577710370472,94,2
146-7.png,146-25.png,sd,inv,146-7_mask.png,1.171819700000924,1,22.637577710370472,95,2
125-9.png,125-9.png,ss,inv,125-9_mask.png,1.212299399994663,1,22.637577710370472,96,2
147_eyes.png,147_eyes.png,isos,inv,147_eyes_mask.png,0.6672118999995291,1,18.555068267735685,97,2
192-220F.png,111-216F.png,dd,up,192-220F_mask.png,0.5835303000058047,1,18.555068267735685,98,1
41-20F.png,41-208F.png,sd,inv,41-20F_mask.png,0.8395248000015272,1,18.555068267735685,99,2
65-208F.png,41-20F.png,dd,inv,65-208F_mask.png,0.8617915000068024,1,18.555068267735685,100,1
20-13F.png,208-65F.png,dd,inv,20-13F_mask.png,0.8029066000017338,1,18.555068267735685,101,2
25-55.png,25-147.png,sd,up,25-55_mask.png,1.921794800000498,1,18.555068267735685,102,2
103_eyes.png,103_eyes.png,isos,inv,103_eyes_mask.png,0.9571069999947213,1,18.555068267735685,103,2
66_eyes.png,148_eyes.png,isod,up,66_eyes_mask.png,1.4935377999936463,1,12.637577710370472,104,1
139-197F.png,139-197F.png,ss,up,139-197F_mask.png,1.0257031999935862,1,12.637577710370472,105,1
41-208F.png,65-208F.png,ds,up,41-208F_mask.png,1.2073694999999134,1,12.637577710370472,106,1
160-76.png,160-2.png,sd,inv,160-76_mask.png,0.5589930999994976,0,12.637577710370472,107,1
30_eyes.png,30_eyes.png,isos,up,30_eyes_mask.png,0.9838477999874158,1,6.8357455957761015,108,2
125-9.png,125-38.png,sd,up,125-9_mask.png,0.8646741999982623,0,6.8357455957761015,109,1
103_eyes.png,192_eyes.png,isod,inv,103_eyes_mask.png,0.9494408000027761,0,18.555068267735685,110,2
160-76.png,24-76.png,ds,up,160-76_mask.png,1.2945029999973485,0,18.555068267735685,111,2
65-20F.png,41-20F.png,ds,up,65-20F_mask.png,1.3137828999897465,1,18.555068267735685,112,2
93_eyes.png,93_eyes.png,isos,inv,93_eyes_mask.png,1.4688562999945134,0,17.183151257649243,113,1
225-96F.png,128-96F.png,ds,inv,225-96F_mask.png,1.9288000999949872,1,17.183151257649243,114,1
20_eyes.png,20_eyes.png,isos,up,20_eyes_mask.png,0.5955775000038557,1,6.330327047908198,115,2
208-65F.png,208-13F.png,sd,up,208-65F_mask.png,0.9065463000006275,0,6.330327047908198,116,2
13-128F.png,96-225F.png,dd,up,13-128F_mask.png,0.7581882999947993,1,6.330327047908198,117,2
25-55.png,7-147.png,dd,inv,25-55_mask.png,0.9271874999976717,1,6.330327047908198,118,2
65-208F.png,41-208F.png,ds,inv,65-208F_mask.png,0.7698432999895886,1,6.330327047908198,119,1
96_eyes.png,96_eyes.png,isos,inv,96_eyes_mask.png,0.8031114000041271,1,20.036520266739068,120,1
147-25.png,147-25.png,ss,inv,147-25_mask.png,0.8419947999936994,1,20.036520266739068,121,1
20_eyes.png,208_eyes.png,isod,inv,20_eyes_mask.png,0.8079348000028403,1,20.036520266739068,122,1
65_eyes.png,65_eyes.png,isos,up,65_eyes_mask.png,0.6952855999988969,1,11.703185684592045,123,1
135-192F.png,197-103F.png,dd,up,135-192F_mask.png,0.8266952999983914,0,11.703185684592045,124,1
93_eyes.png,8_eyes.png,isod,inv,93_eyes_mask.png,0.6169426999986172,1,20.036520266739068,125,2
111-216F.png,192-220F.png,dd,up,111-216F_mask.png,0.7121169999882113,1,20.036520266739068,126,2
2-8.png,46-8.png,ds,up,2-8_mask.png,0.8115818000078434,1,20.036520266739068,127,1
13-128F.png,13-128F.png,ss,up,13-128F_mask.png,0.6266903000068851,1,20.036520266739068,128,2
131-94F.png,131-94F.png,ss,inv,131-94F_mask.png,0.6489092999981949,1,20.036520266739068,129,2
38_eyes.png,38_eyes.png,isos,up,38_eyes_mask.png,0.5899629000050481,1,10.837880352311993,130,1
7-55.png,7-55.png,ss,up,7-55_mask.png,0.7180407999985619,1,10.837880352311993,131,1
20_eyes.png,208_eyes.png,isod,up,20_eyes_mask.png,0.7286268000025302,1,5.862277928868478,132,2
128-96F.png,128-30F.png,sd,inv,128-96F_mask.png,1.066826599999331,1,5.862277928868478,133,1
160-2.png,24-76.png,dd,inv,160-2_mask.png,1.079851000002236,0,5.862277928868478,134,1
46-8.png,2-8.png,ds,inv,46-8_mask.png,1.0286850999982562,1,5.862277928868478,135,2
216_eyes.png,220_eyes.png,isod,up,216_eyes_mask.png,0.8575148000090849,1,5.0274402453675116,136,2
125-38.png,125-9.png,sd,inv,125-38_mask.png,0.742588799999794,0,5.0274402453675116,137,2
128-96F.png,225-96F.png,ds,inv,128-96F_mask.png,1.5364020999986678,1,5.0274402453675116,138,2
131-94F.png,131-37F.png,sd,up,131-94F_mask.png,0.7467178999941098,0,5.0274402453675116,139,1
100_eyes.png,125_eyes.png,isod,up,100_eyes_mask.png,0.796679299994139,1,10.036553609986138,140,1
94_eyes.png,37_eyes.png,isod,inv,94_eyes_mask.png,0.9325321999931475,1,18.555068267735685,141,1
44-125.png,44-125.png,ss,up,44-125_mask.png,0.6531413999910001,1,18.555068267735685,142,2
145-148.png,145-148.png,ss,inv,145-148_mask.png,0.7463204000086989,1,18.555068267735685,143,1
65_eyes.png,13_eyes.png,isod,up,65_eyes_mask.png,0.8350888999993913,1,4.655723435152049,144,2
9_eyes.png,9_eyes.png,isos,up,9_eyes_mask.png,1.2884214999940014,1,9.294475034930333,145,1
208-13F.png,20-65F.png,dd,up,208-13F_mask.png,1.0526615000126185,1,9.294475034930333,146,1
24-76.png,24-76.png,ss,inv,24-76_mask.png,0.9857787000073586,1,9.294475034930333,147,1
225-30F.png,225-96F.png,sd,inv,225-30F_mask.png,1.0897306999977445,1,9.294475034930333,148,2
145-66.png,52-66.png,ds,inv,145-66_mask.png,1.3166912000015145,1,9.294475034930333,149,1
151-146.png,151-146.png,ss,up,151-146_mask.png,0.7271398000011686,1,9.294475034930333,150,1
125_eyes.png,100_eyes.png,isod,inv,125_eyes_mask.png,0.7778141000017058,1,20.036520266739068,151,2
139-197F.png,139-135F.png,sd,up,139-197F_mask.png,0.8580163999868091,0,20.036520266739068,152,1
103-135F.png,139-197F.png,dd,inv,103-135F_mask.png,0.743116600002395,0,20.036520266739068,153,2
7_eyes.png,25_eyes.png,isod,up,7_eyes_mask.png,0.7690096000005724,0,7.970863616012756,154,1
7_eyes.png,7_eyes.png,isos,up,7_eyes_mask.png,0.6959401000058278,1,4.311490469647435,155,2
147-7.png,146-7.png,ds,inv,147-7_mask.png,1.2833649999956833,1,4.311490469647435,156,2
93_eyes.png,93_eyes.png,isos,inv,93_eyes_mask.png,0.6317282000090927,1,18.555068267735685,157,2
160-2.png,24-2.png,ds,inv,160-2_mask.png,0.7257097000110662,1,18.555068267735685,158,2
44-100.png,123-100.png,ds,up,44-100_mask.png,0.9684301999950549,0,18.555068267735685,159,1
145-148.png,52-66.png,dd,up,145-148_mask.png,1.5691307000088273,0,18.555068267735685,160,1
160-76.png,160-2.png,sd,up,160-76_mask.png,1.0253641000017524,0,18.555068267735685,161,2
7-55.png,25-147.png,dd,up,7-55_mask.png,1.2316646999970544,0,18.555068267735685,162,2
13-225F.png,13-128F.png,sd,inv,13-225F_mask.png,1.2535877999907825,1,18.555068267735685,163,1
65-208F.png,65-20F.png,sd,inv,65-208F_mask.png,0.8990053999878,1,18.555068267735685,164,2
208_eyes.png,20_eyes.png,isod,inv,208_eyes_mask.png,1.0630488999886438,1,18.555068267735685,165,1
192_eyes.png,103_eyes.png,isod,up,192_eyes_mask.png,0.7482500999904005,1,10.837880352311993,166,1
103_eyes.png,192_eyes.png,isod,up,103_eyes_mask.png,0.7405186999967555,0,3.992709259641317,167,2
94_eyes.png,94_eyes.png,isos,up,94_eyes_mask.png,0.9967625999997836,1,15.428835233189812,168,2
24-2.png,160-2.png,ds,up,24-2_mask.png,0.6435826999950223,1,15.428835233189812,169,2
135-192F.png,135-192F.png,ss,inv,135-192F_mask.png,0.8176707999955397,1,15.428835233189812,170,1
13-225F.png,13-225F.png,ss,up,13-225F_mask.png,0.7434359000035329,1,15.428835233189812,171,2
225_eyes.png,225_eyes.png,isos,inv,225_eyes_mask.png,0.6005970000114758,1,18.555068267735685,172,1
111-216F.png,111-216F.png,ss,inv,111-216F_mask.png,0.6404062000074191,1,18.555068267735685,173,2
147-25.png,147-7.png,sd,up,147-25_mask.png,0.7100406999961706,1,18.555068267735685,174,2
160-2.png,160-2.png,ss,up,160-2_mask.png,0.8170769999996992,1,18.555068267735685,175,1
208-13F.png,20-65F.png,dd,inv,208-13F_mask.png,1.4324235000094632,1,18.555068267735685,176,2
96-225F.png,13-225F.png,ds,inv,96-225F_mask.png,0.9341146999940975,1,18.555068267735685,177,1
125_eyes.png,125_eyes.png,isos,inv,125_eyes_mask.png,0.8643958999891765,1,18.555068267735685,178,1
2-8.png,2-8.png,ss,up,2-8_mask.png,0.6374208999914117,1,18.555068267735685,179,2
128_eyes.png,225_eyes.png,isod,inv,128_eyes_mask.png,0.970838699999149,0,27.183151257649243,180,1
49-87.png,49-146.png,sd,inv,49-87_mask.png,0.7143207999906735,1,27.183151257649243,181,1
41-208F.png,65-20F.png,dd,up,41-208F_mask.png,0.8057101000013063,1,27.183151257649243,182,2
125-38.png,125-9.png,sd,up,125-38_mask.png,0.8841707999963546,1,27.183151257649243,183,1
7_eyes.png,7_eyes.png,isos,inv,7_eyes_mask.png,0.6405939999967813,1,18.555068267735685,184,2
192-216F.png,111-216F.png,ds,up,192-216F_mask.png,0.7579815999924904,0,18.555068267735685,185,1
197_eyes.png,135_eyes.png,isod,inv,197_eyes_mask.png,0.7033793000009609,1,28.555068267735685,186,2
13-128F.png,96-128F.png,ds,up,13-128F_mask.png,0.8189397999958601,1,28.555068267735685,187,2
225-96F.png,128-30F.png,dd,inv,225-96F_mask.png,0.8576812999963295,1,28.555068267735685,188,1
225_eyes.png,225_eyes.png,isos,up,225_eyes_mask.png,0.5909231999976328,1,20.83788035231199,189,1
151-87.png,49-146.png,dd,inv,151-87_mask.png,0.806978499997058,1,20.83788035231199,190,1
7-147.png,7-147.png,ss,inv,7-147_mask.png,0.5743171000067377,1,20.83788035231199,191,2
41-20F.png,65-208F.png,dd,inv,41-20F_mask.png,0.868574299995089,1,20.83788035231199,192,1
24-2.png,24-76.png,sd,up,24-2_mask.png,0.7300067999894964,1,20.83788035231199,193,1
55_eyes.png,147_eyes.png,isod,inv,55_eyes_mask.png,0.6199583999987226,0,17.183151257649243,194,1
66_eyes.png,66_eyes.png,isos,up,66_eyes_mask.png,1.1774770999909379,1,5.428835233189813,195,2
135-192F.png,197-192F.png,ds,up,135-192F_mask.png,0.7149396000022534,1,5.428835233189813,196,2
25-55.png,7-55.png,ds,up,25-55_mask.png,0.8142921999969985,1,5.428835233189813,197,1
208_eyes.png,208_eyes.png,isos,inv,208_eyes_mask.png,0.7407617999997456,1,18.555068267735685,198,2
128-30F.png,128-30F.png,ss,up,128-30F_mask.png,0.8219236000004457,1,18.555068267735685,199,1
145-66.png,145-66.png,ss,up,145-66_mask.png,0.7085680000018328,1,18.555068267735685,200,1
37_eyes.png,94_eyes.png,isod,inv,37_eyes_mask.png,0.6639186999964295,1,20.036520266739068,201,1
147-7.png,147-7.png,ss,inv,147-7_mask.png,0.9246735000051558,1,20.036520266739068,202,1
65-208F.png,65-208F.png,ss,inv,65-208F_mask.png,0.7837036999990232,1,20.036520266739068,203,2
25-147.png,7-147.png,ds,inv,25-147_mask.png,0.7439706000004662,1,20.036520266739068,204,1
46-8.png,2-93.png,dd,up,46-8_mask.png,0.5938751000066986,1,20.036520266739068,205,1
147_eyes.png,55_eyes.png,isod,up,147_eyes_mask.png,1.0739990000001853,1,10.837880352311993,206,1
192_eyes.png,103_eyes.png,isod,inv,192_eyes_mask.png,0.7982454000011785,1,18.555068267735685,207,2
123-100.png,123-125.png,sd,up,123-100_mask.png,0.7335256000078516,1,18.555068267735685,208,2
146-25.png,147-7.png,dd,inv,146-25_mask.png,0.743315799991251,1,18.555068267735685,209,1
76_eyes.png,76_eyes.png,isos,inv,76_eyes_mask.png,0.8005544000043301,1,17.183151257649243,210,2
128-96F.png,128-96F.png,ss,inv,128-96F_mask.png,0.7844712000078289,1,17.183151257649243,211,2
103-135F.png,103-135F.png,ss,inv,103-135F_mask.png,0.7920073999994202,1,17.183151257649243,212,1
131-37F.png,131-94F.png,sd,inv,131-37F_mask.png,0.7749932000006083,1,17.183151257649243,213,2
41-20F.png,41-208F.png,sd,up,41-20F_mask.png,0.8312951999978395,1,17.183151257649243,214,2
146-25.png,147-7.png,dd,up,146-25_mask.png,1.5410714000026928,1,17.183151257649243,215,2
135_eyes.png,135_eyes.png,isos,up,135_eyes_mask.png,0.5589637999946717,1,10.036553609986138,216,1
7-55.png,25-55.png,ds,up,7-55_mask.png,1.023676599987084,1,10.036553609986138,217,2
129-37F.png,131-37F.png,ds,inv,129-37F_mask.png,0.8461299999908078,1,10.036553609986138,218,2
135_eyes.png,135_eyes.png,isos,inv,135_eyes_mask.png,0.8602366999984952,1,18.555068267735685,219,1
65-20F.png,65-208F.png,sd,inv,65-20F_mask.png,0.75304049999977,1,18.555068267735685,220,2
197-103F.png,197-103F.png,ss,up,197-103F_mask.png,0.8102579000114929,1,18.555068267735685,221,2
25-147.png,25-55.png,sd,up,25-147_mask.png,1.1051002999884076,0,18.555068267735685,222,1
111-220F.png,192-216F.png,dd,up,111-220F_mask.png,0.7884398999885889,1,18.555068267735685,223,1
147_eyes.png,55_eyes.png,isod,inv,147_eyes_mask.png,0.8197021999949357,1,17.183151257649243,224,2
216_eyes.png,220_eyes.png,isod,up,216_eyes_mask.png,0.9149024000071222,1,10.036553609986138,225,1
20-65F.png,208-13F.png,dd,up,20-65F_mask.png,1.5101473999966402,0,10.036553609986138,226,2
192-220F.png,111-216F.png,dd,inv,192-220F_mask.png,0.9132651999971131,1,10.036553609986138,227,2
96-225F.png,96-128F.png,sd,inv,96-225F_mask.png,0.8763216999941505,1,10.036553609986138,228,1
41-208F.png,65-208F.png,ds,inv,41-208F_mask.png,1.248662999991211,1,10.036553609986138,229,2
13_eyes.png,13_eyes.png,isos,up,13_eyes_mask.png,0.5981396000133827,1,5.0274402453675116,230,2
37_eyes.png,37_eyes.png,isos,up,37_eyes_mask.png,0.8292970000038622,1,9.294475034930333,231,1
146-25.png,147-25.png,ds,inv,146-25_mask.png,1.435669800004689,0,9.294475034930333,232,1
76_eyes.png,2_eyes.png,isod,up,76_eyes_mask.png,1.4254568000033032,0,4.655723435152049,233,2
135_eyes.png,197_eyes.png,isod,up,135_eyes_mask.png,1.0318559000006644,1,5.862277928868478,234,2
49-146.png,151-87.png,dd,inv,49-146_mask.png,0.7982542999961879,1,5.862277928868478,235,2
220_eyes.png,220_eyes.png,isos,inv,220_eyes_mask.png,0.9499046000128146,1,18.555068267735685,236,1
192-220F.png,111-220F.png,ds,up,192-220F_mask.png,0.9275410999980522,0,18.555068267735685,237,1
52-148.png,52-148.png,ss,up,52-148_mask.png,0.6899122000031639,0,18.555068267735685,238,2
129-94F.png,129-37F.png,sd,inv,129-94F_mask.png,1.134034899994731,1,18.555068267735685,239,1
41-20F.png,65-20F.png,ds,inv,41-20F_mask.png,0.6335462999995798,1,18.555068267735685,240,2
125-38.png,125-38.png,ss,up,125-38_mask.png,0.6481961999961641,1,18.555068267735685,241,2
146-7.png,147-25.png,dd,up,146-7_mask.png,0.8697504000010667,1,18.555068267735685,242,1
44-100.png,44-125.png,sd,inv,44-100_mask.png,1.2343806999997469,1,18.555068267735685,243,2
93_eyes.png,93_eyes.png,isos,up,93_eyes_mask.png,0.8089447999955155,1,5.428835233189813,244,2
52-66.png,145-66.png,ds,up,52-66_mask.png,0.952516100005596,1,5.428835233189813,245,1
111-220F.png,192-220F.png,ds,inv,111-220F_mask.png,0.9044466000050306,1,5.428835233189813,246,1
46-93.png,46-93.png,ss,inv,46-93_mask.png,0.8041263999912189,1,5.428835233189813,247,1
55_eyes.png,55_eyes.png,isos,inv,55_eyes_mask.png,0.8118649999960326,0,17.183151257649243,248,2
9_eyes.png,38_eyes.png,isod,inv,9_eyes_mask.png,0.7942201000114437,1,18.555068267735685,249,1
160-2.png,160-2.png,ss,inv,160-2_mask.png,0.6742549999908078,1,18.555068267735685,250,2
24-2.png,24-76.png,sd,inv,24-2_mask.png,1.0150963999913074,1,18.555068267735685,251,2
20-65F.png,20-13F.png,sd,up,20-65F_mask.png,0.9335302000108641,1,18.555068267735685,252,2
17-9.png,125-38.png,dd,up,17-9_mask.png,1.239739799988456,0,18.555068267735685,253,1
13-128F.png,96-128F.png,ds,inv,13-128F_mask.png,0.6541514999989886,1,18.555068267735685,254,1
96-225F.png,96-225F.png,ss,up,96-225F_mask.png,0.6837060999969253,0,18.555068267735685,255,1
151-87.png,49-146.png,dd,up,151-87_mask.png,1.2401090000057593,1,18.555068267735685,256,2
87_eyes.png,87_eyes.png,isos,inv,87_eyes_mask.png,0.7257093999942299,1,18.555068267735685,257,1
128-30F.png,128-96F.png,sd,up,128-30F_mask.png,0.7523953999916557,0,18.555068267735685,258,2
46-93.png,46-93.png,ss,up,46-93_mask.png,0.7780923000100302,1,18.555068267735685,259,2
145-148.png,145-66.png,sd,inv,145-148_mask.png,0.8741555000015069,1,18.555068267735685,260,1
17-38.png,125-38.png,ds,up,17-38_mask.png,0.9987210999970557,1,18.555068267735685,261,2
129-37F.png,129-37F.png,ss,inv,129-37F_mask.png,0.7507466999959433,0,18.555068267735685,262,2
192-216F.png,111-220F.png,dd,inv,192-216F_mask.png,0.6868212000117637,1,18.555068267735685,263,2
13_eyes.png,65_eyes.png,isod,up,13_eyes_mask.png,0.6120852999883937,1,9.294475034930333,264,1
52-148.png,145-66.png,dd,inv,52-148_mask.png,0.771360899991123,1,9.294475034930333,265,2
25-55.png,7-55.png,ds,inv,25-55_mask.png,0.6438543000112986,1,9.294475034930333,266,2
151-146.png,151-87.png,sd,inv,151-146_mask.png,0.7381960000057006,1,9.294475034930333,267,1
8_eyes.png,8_eyes.png,isos,inv,8_eyes_mask.png,1.0595137999916915,0,17.183151257649243,268,1
7-147.png,25-147.png,ds,up,7-147_mask.png,1.079958100002841,1,17.183151257649243,269,2
52-148.png,145-148.png,ds,up,52-148_mask.png,1.172604899998987,1,17.183151257649243,270,1
76_eyes.png,2_eyes.png,isod,inv,76_eyes_mask.png,0.7173199999961071,1,18.555068267735685,271,2
146_eyes.png,87_eyes.png,isod,up,146_eyes_mask.png,0.7347280000103638,1,5.428835233189813,272,2
148_eyes.png,66_eyes.png,isod,inv,148_eyes_mask.png,1.0653677000082098,0,28.555068267735685,273,1
7_eyes.png,25_eyes.png,isod,up,7_eyes_mask.png,0.6377589000039734,1,5.0274402453675116,274,2
13-225F.png,96-128F.png,dd,inv,13-225F_mask.png,0.8521359000005759,0,5.0274402453675116,275,1
65-20F.png,65-20F.png,ss,up,65-20F_mask.png,0.8095931999996537,1,5.0274402453675116,276,1
49-146.png,151-87.png,dd,up,49-146_mask.png,0.720994300005259,0,5.0274402453675116,277,2
123-125.png,123-100.png,sd,up,123-125_mask.png,0.88366269999824,0,5.0274402453675116,278,1
24-76.png,24-2.png,sd,up,24-76_mask.png,0.9443463000061456,1,5.0274402453675116,279,1
192_eyes.png,192_eyes.png,isos,inv,192_eyes_mask.png,0.6984155000100145,1,18.555068267735685,280,2
208-13F.png,208-13F.png,ss,inv,208-13F_mask.png,0.6377131000044756,1,18.555068267735685,281,1
192_eyes.png,192_eyes.png,isos,up,192_eyes_mask.png,1.3477143000054639,1,15.027440245367512,282,2
225_eyes.png,128_eyes.png,isod,up,225_eyes_mask.png,0.7093318999977782,1,8.607263960508302,283,1
87_eyes.png,87_eyes.png,isos,up,87_eyes_mask.png,0.8553870000032475,1,7.970863616012756,284,1
66_eyes.png,148_eyes.png,isod,inv,66_eyes_mask.png,0.6046180999983335,0,28.555068267735685,285,2
128-96F.png,225-30F.png,dd,inv,128-96F_mask.png,0.6442979000130435,1,28.555068267735685,286,1
13_eyes.png,13_eyes.png,isos,up,13_eyes_mask.png,0.7678463999909582,1,17.38151717858132,287,1
44-100.png,123-100.png,ds,inv,44-100_mask.png,0.5662031000101706,1,17.38151717858132,288,1
52-148.png,52-66.png,sd,inv,52-148_mask.png,0.7989070000039646,0,17.38151717858132,289,1
125_eyes.png,100_eyes.png,isod,up,125_eyes_mask.png,0.686714800001937,1,7.381517178581321,290,1
125_eyes.png,100_eyes.png,isod,up,125_eyes_mask.png,1.2254146999912336,1,5.0274402453675116,291,2
103-135F.png,103-197F.png,sd,inv,103-135F_mask.png,0.9519180999923265,1,5.0274402453675116,292,1
131-94F.png,129-37F.png,dd,inv,131-94F_mask.png,1.0484813999937614,1,5.0274402453675116,293,2
46-93.png,46-8.png,sd,up,46-93_mask.png,0.6384801999956835,0,5.0274402453675116,294,2
94_eyes.png,94_eyes.png,isos,inv,94_eyes_mask.png,0.540011199991568,1,18.555068267735685,295,1
147_eyes.png,55_eyes.png,isod,up,147_eyes_mask.png,0.6218781000061426,1,6.8357455957761015,296,1
13-128F.png,13-128F.png,ss,inv,13-128F_mask.png,0.6365153999940958,1,6.8357455957761015,297,1
146-25.png,147-25.png,ds,up,146-25_mask.png,0.682705300001544,1,6.8357455957761015,298,1
7_eyes.png,25_eyes.png,isod,inv,7_eyes_mask.png,0.7192676999984542,0,18.555068267735685,299,2
145-148.png,145-148.png,ss,up,145-148_mask.png,0.6261703000054695,1,18.555068267735685,300,2
17-38.png,17-38.png,ss,inv,17-38_mask.png,0.560339000003296,1,18.555068267735685,301,1
125-9.png,17-38.png,dd,inv,125-9_mask.png,0.6480819999997038,1,18.555068267735685,302,1
46-8.png,46-8.png,ss,up,46-8_mask.png,0.6700113999977475,1,18.555068267735685,303,1
76_eyes.png,76_eyes.png,isos,up,76_eyes_mask.png,0.5628963000053773,1,6.330327047908198,304,1
46-93.png,2-93.png,ds,up,46-93_mask.png,0.8918955999979516,1,6.330327047908198,305,2
135_eyes.png,197_eyes.png,isod,inv,135_eyes_mask.png,0.6396230999962427,1,20.036520266739068,306,2
2-8.png,2-93.png,sd,inv,2-8_mask.png,0.8444653999904403,1,20.036520266739068,307,2
76_eyes.png,76_eyes.png,isos,inv,76_eyes_mask.png,0.6108215999993263,1,18.555068267735685,308,1
131-94F.png,129-94F.png,ds,inv,131-94F_mask.png,1.353746000007959,1,18.555068267735685,309,1
2-93.png,2-8.png,sd,up,2-93_mask.png,0.5868083000095794,1,18.555068267735685,310,1
38_eyes.png,9_eyes.png,isod,inv,38_eyes_mask.png,0.7398572999954922,1,18.555068267735685,311,1
65-20F.png,41-208F.png,dd,inv,65-20F_mask.png,0.8126389999961248,1,18.555068267735685,312,2
103_eyes.png,103_eyes.png,isos,up,103_eyes_mask.png,1.2121980000083568,1,6.330327047908198,313,1
2-93.png,46-8.png,dd,inv,2-93_mask.png,2.2355454999924405,0,6.330327047908198,314,1
160-76.png,160-76.png,ss,inv,160-76_mask.png,0.8099590999918291,1,6.330327047908198,315,2
9_eyes.png,38_eyes.png,isod,inv,9_eyes_mask.png,0.5762402999971528,1,18.555068267735685,316,1
55_eyes.png,147_eyes.png,isod,up,55_eyes_mask.png,0.6563192999892635,1,4.655723435152049,317,2
2_eyes.png,2_eyes.png,isos,inv,2_eyes_mask.png,0.7022913999971934,1,18.555068267735685,318,2
96-225F.png,13-128F.png,dd,up,96-225F_mask.png,0.7299559000093723,1,18.555068267735685,319,1
44-125.png,44-125.png,ss,inv,44-125_mask.png,0.6838025999895763,1,18.555068267735685,320,2
197-103F.png,135-103F.png,ds,up,197-103F_mask.png,0.9585628000058932,1,18.555068267735685,321,2
145-148.png,145-66.png,sd,up,145-148_mask.png,0.6714771999977529,1,18.555068267735685,322,2
128_eyes.png,128_eyes.png,isos,up,128_eyes_mask.png,0.891832199995406,1,4.655723435152049,323,2
37_eyes.png,37_eyes.png,isos,inv,37_eyes_mask.png,0.7199545000039507,0,18.555068267735685,324,2
128-30F.png,225-96F.png,dd,up,128-30F_mask.png,0.6025195999973221,1,18.555068267735685,325,2
2-8.png,46-93.png,dd,up,2-8_mask.png,0.9297933999914676,1,18.555068267735685,326,1
7-147.png,7-147.png,ss,up,7-147_mask.png,0.7327664000040386,1,18.555068267735685,327,2
146_eyes.png,146_eyes.png,isos,up,146_eyes_mask.png,0.670417900008033,1,4.311490469647435,328,2
24-2.png,24-2.png,ss,up,24-2_mask.png,0.7802109000040218,1,4.311490469647435,329,1
65-20F.png,41-20F.png,ds,inv,65-20F_mask.png,1.7563623000023654,1,4.311490469647435,330,2
24-2.png,160-76.png,dd,up,24-2_mask.png,1.0608273999969242,0,4.311490469647435,331,2
125-9.png,17-9.png,ds,up,125-9_mask.png,0.818928099994082,1,4.311490469647435,332,1
151-146.png,151-87.png,sd,up,151-146_mask.png,0.7768247000058182,0,4.311490469647435,333,1
197-192F.png,197-103F.png,sd,inv,197-192F_mask.png,0.7693613000010373,0,4.311490469647435,334,2
49-87.png,151-87.png,ds,inv,49-87_mask.png,0.8095935000019381,1,4.311490469647435,335,2
7_eyes.png,25_eyes.png,isod,inv,7_eyes_mask.png,0.8141866999940248,1,18.555068267735685,336,1
20-13F.png,20-65F.png,sd,inv,20-13F_mask.png,0.5890573999931803,1,18.555068267735685,337,1
139-197F.png,139-135F.png,sd,inv,139-197F_mask.png,1.0205790000036359,0,18.555068267735685,338,2
66_eyes.png,66_eyes.png,isos,up,66_eyes_mask.png,0.8190446999942651,1,4.311490469647435,339,2
197_eyes.png,135_eyes.png,isod,inv,197_eyes_mask.png,0.6901913000037894,1,20.036520266739068,340,2
52-66.png,145-148.png,dd,inv,52-66_mask.png,0.9258686000102898,1,20.036520266739068,341,1
225-96F.png,128-96F.png,ds,up,225-96F_mask.png,1.1045144999952754,1,20.036520266739068,342,1
55_eyes.png,147_eyes.png,isod,inv,55_eyes_mask.png,0.8598835000011604,0,20.036520266739068,343,2
17-9.png,125-9.png,ds,up,17-9_mask.png,0.745206399995368,1,20.036520266739068,344,2
37_eyes.png,94_eyes.png,isod,up,37_eyes_mask.png,0.8351872999919578,0,3.992709259641317,345,2
38_eyes.png,38_eyes.png,isos,inv,38_eyes_mask.png,0.7138341000099899,1,18.555068267735685,346,1
44-100.png,44-100.png,ss,up,44-100_mask.png,0.7246422000025632,1,18.555068267735685,347,2
24-2.png,160-76.png,dd,inv,24-2_mask.png,0.9266115000064019,0,18.555068267735685,348,1
103-197F.png,139-197F.png,ds,up,103-197F_mask.png,1.3058908999955747,0,18.555068267735685,349,2
25-55.png,7-147.png,dd,up,25-55_mask.png,0.621240399996168,1,18.555068267735685,350,1
17-38.png,17-9.png,sd,inv,17-38_mask.png,0.6841162999917287,1,18.555068267735685,351,2
96-128F.png,13-128F.png,ds,up,96-128F_mask.png,0.6645274000038626,1,18.555068267735685,352,1
125-38.png,125-38.png,ss,inv,125-38_mask.png,0.6456266000022879,1,18.555068267735685,353,1
49-146.png,49-146.png,ss,up,49-146_mask.png,0.6830980999948224,1,18.555068267735685,354,2
30_eyes.png,96_eyes.png,isod,up,30_eyes_mask.png,0.7834772999922279,0,5.862277928868478,355,1
146_eyes.png,87_eyes.png,isod,up,146_eyes_mask.png,0.6308457000122871,0,4.655723435152049,356,2
151-146.png,49-87.png,dd,up,151-146_mask.png,0.7569499999954132,0,4.655723435152049,357,2
129-94F.png,129-94F.png,ss,inv,129-94F_mask.png,0.7419141999998828,1,4.655723435152049,358,2
128-30F.png,225-30F.png,ds,inv,128-30F_mask.png,0.7278827000118326,1,4.655723435152049,359,2
111-220F.png,111-216F.png,sd,up,111-220F_mask.png,1.314133200008655,1,4.655723435152049,360,1
125-38.png,17-9.png,dd,inv,125-38_mask.png,0.5811663000058616,0,4.655723435152049,361,2
93_eyes.png,8_eyes.png,isod,inv,93_eyes_mask.png,0.6455535999994026,1,17.183151257649243,362,1
146-7.png,147-7.png,ds,inv,146-7_mask.png,0.6673535000008997,1,17.183151257649243,363,1
111-216F.png,192-220F.png,dd,inv,111-216F_mask.png,0.640543700006674,1,17.183151257649243,364,2
147-7.png,146-25.png,dd,up,147-7_mask.png,0.7329395999986446,1,17.183151257649243,365,2
220_eyes.png,220_eyes.png,isos,up,220_eyes_mask.png,0.6803512999904342,1,7.381517178581321,366,1
13_eyes.png,65_eyes.png,isod,up,13_eyes_mask.png,0.7158370999968611,1,7.381517178581321,367,1
197-192F.png,197-192F.png,ss,inv,197-192F_mask.png,0.8781932999991113,0,7.381517178581321,368,1
9_eyes.png,9_eyes.png,isos,inv,9_eyes_mask.png,0.82666700000118,1,27.183151257649243,369,1
125_eyes.png,125_eyes.png,isos,up,125_eyes_mask.png,0.8733368999965023,0,15.027440245367512,370,2
145-66.png,145-148.png,sd,inv,145-66_mask.png,1.0778499000007287,0,15.027440245367512,371,1
65-20F.png,41-208F.png,dd,up,65-20F_mask.png,0.6268936999986181,1,15.027440245367512,372,1
20-65F.png,208-65F.png,ds,inv,20-65F_mask.png,0.8335395000030985,1,15.027440245367512,373,2
103-197F.png,103-135F.png,sd,up,103-197F_mask.png,0.6558197999984259,1,15.027440245367512,374,2
100_eyes.png,100_eyes.png,isos,inv,100_eyes_mask.png,0.6127511999948183,1,21.636252618780404,375,2
25_eyes.png,25_eyes.png,isos,inv,25_eyes_mask.png,0.5857173999975203,1,30.036520266739068,376,2
146-25.png,146-25.png,ss,up,146-25_mask.png,0.6741291000071215,1,30.036520266739068,377,1
65_eyes.png,65_eyes.png,isos,up,65_eyes_mask.png,0.6541684000112582,1,16.835745595776103,378,1
17-9.png,125-9.png,ds,inv,17-9_mask.png,0.6355518000054872,1,16.835745595776103,379,1
151-87.png,151-87.png,ss,inv,151-87_mask.png,0.8574230999947758,1,16.835745595776103,380,2
125-9.png,125-9.png,ss,up,125-9_mask.png,0.6460999000119045,1,16.835745595776103,381,1
44-125.png,44-100.png,sd,up,44-125_mask.png,0.8919118000048911,1,16.835745595776103,382,2
197-192F.png,197-103F.png,sd,up,197-192F_mask.png,0.8311122000013711,1,16.835745595776103,383,1
2_eyes.png,76_eyes.png,isod,up,2_eyes_mask.png,0.9096781999978703,1,5.0274402453675116,384,2
52-66.png,52-148.png,sd,up,52-66_mask.png,0.8410769000038272,0,5.0274402453675116,385,2
220_eyes.png,216_eyes.png,isod,up,220_eyes_mask.png,0.6389672000077553,1,5.0274402453675116,386,2
8_eyes.png,8_eyes.png,isos,up,8_eyes_mask.png,0.8283147999900393,1,6.8357455957761015,387,1
135_eyes.png,197_eyes.png,isod,inv,135_eyes_mask.png,0.9779721000086283,0,17.183151257649243,388,1
96_eyes.png,96_eyes.png,isos,up,96_eyes_mask.png,0.7388959999952931,1,5.0274402453675116,389,2
139-135F.png,139-135F.png,ss,inv,139-135F_mask.png,0.8272742999979528,1,5.0274402453675116,390,1
25-55.png,25-55.png,ss,inv,25-55_mask.png,2.0498591999930795,0,5.0274402453675116,391,1
24-76.png,24-76.png,ss,up,24-76_mask.png,0.5271011000004364,1,5.0274402453675116,392,2
49-87.png,49-87.png,ss,up,49-87_mask.png,1.1443863000022247,1,5.0274402453675116,393,1
111-216F.png,111-220F.png,sd,inv,111-216F_mask.png,1.0666966999997385,1,5.0274402453675116,394,1
55_eyes.png,55_eyes.png,isos,inv,55_eyes_mask.png,0.5915130999928806,1,20.036520266739068,395,2
96_eyes.png,30_eyes.png,isod,inv,96_eyes_mask.png,0.6952651000028709,1,18.555068267735685,396,1
147-7.png,146-7.png,ds,up,147-7_mask.png,0.77927389999968,1,18.555068267735685,397,1
208-65F.png,20-65F.png,ds,inv,208-65F_mask.png,0.5549720999988494,1,18.555068267735685,398,2
225_eyes.png,225_eyes.png,isos,inv,225_eyes_mask.png,0.612395899996045,1,20.036520266739068,399,2
128_eyes.png,225_eyes.png,isod,up,128_eyes_mask.png,0.7157469999947352,0,6.8357455957761015,400,1
8_eyes.png,93_eyes.png,isod,up,8_eyes_mask.png,0.655009300011443,1,7.970863616012756,401,1
192-220F.png,192-220F.png,ss,inv,192-220F_mask.png,0.7406434000004083,1,7.970863616012756,402,2
160-2.png,24-76.png,dd,up,160-2_mask.png,0.6545591000030981,1,7.970863616012756,403,2
123-125.png,44-125.png,ds,inv,123-125_mask.png,0.7078727999905823,1,7.970863616012756,404,2
52-148.png,145-148.png,ds,inv,52-148_mask.png,0.7510868999961531,0,7.970863616012756,405,1
145-148.png,52-66.png,dd,inv,145-148_mask.png,0.7046832000050927,0,7.970863616012756,406,1
135-192F.png,135-103F.png,sd,up,135-192F_mask.png,0.5963638999965042,1,7.970863616012756,407,1
135_eyes.png,135_eyes.png,isos,up,135_eyes_mask.png,0.7784433999913745,0,5.0274402453675116,408,2
46-8.png,46-93.png,sd,inv,46-8_mask.png,0.7400223000004189,0,5.0274402453675116,409,2
145-66.png,52-148.png,dd,inv,145-66_mask.png,0.7744017999939388,1,5.0274402453675116,410,2
128-96F.png,128-96F.png,ss,up,128-96F_mask.png,0.8146397000091383,1,5.0274402453675116,411,2
24-76.png,160-2.png,dd,up,24-76_mask.png,1.2213008999970043,0,5.0274402453675116,412,1
131-94F.png,129-37F.png,dd,up,131-94F_mask.png,1.3640699999959907,0,5.0274402453675116,413,1
148_eyes.png,66_eyes.png,isod,inv,148_eyes_mask.png,1.1325963000126649,0,20.036520266739068,414,2
103_eyes.png,192_eyes.png,isod,inv,103_eyes_mask.png,0.6625585000001593,1,21.636252618780404,415,2
103-197F.png,103-135F.png,sd,inv,103-197F_mask.png,0.7318297999881906,0,21.636252618780404,416,1
111-216F.png,111-220F.png,sd,up,111-216F_mask.png,0.5428945999883581,1,21.636252618780404,417,2
208_eyes.png,208_eyes.png,isos,up,208_eyes_mask.png,0.6245999000093434,1,7.970863616012756,418,1
139-197F.png,103-197F.png,ds,up,139-197F_mask.png,0.7350613000016892,0,7.970863616012756,419,2
197-103F.png,197-103F.png,ss,inv,197-103F_mask.png,0.7614135999901919,1,7.970863616012756,420,2
20-65F.png,208-65F.png,ds,up,20-65F_mask.png,0.6747892000130378,0,7.970863616012756,421,2
46-93.png,2-8.png,dd,up,46-93_mask.png,0.623355800009449,1,7.970863616012756,422,2
146-7.png,147-7.png,ds,up,146-7_mask.png,0.7736459000007017,0,7.970863616012756,423,1
111-220F.png,111-220F.png,ss,up,111-220F_mask.png,0.7176894000003813,1,7.970863616012756,424,1
96_eyes.png,96_eyes.png,isos,inv,96_eyes_mask.png,0.8003232999908505,1,18.555068267735685,425,1
7-55.png,25-55.png,ds,inv,7-55_mask.png,0.9443376999988686,1,18.555068267735685,426,1
129-94F.png,131-37F.png,dd,inv,129-94F_mask.png,1.2799060999968788,0,18.555068267735685,427,2
7-147.png,7-55.png,sd,inv,7-147_mask.png,1.37365989999671,1,18.555068267735685,428,2
192-216F.png,192-220F.png,sd,up,192-216F_mask.png,0.6863474999991013,1,18.555068267735685,429,1
25-147.png,7-55.png,dd,inv,25-147_mask.png,1.2264702999964356,1,18.555068267735685,430,1
100_eyes.png,100_eyes.png,isos,inv,100_eyes_mask.png,0.5771543000009842,1,18.555068267735685,431,1
147-7.png,146-25.png,dd,inv,147-7_mask.png,0.7240993000013987,1,18.555068267735685,432,1
131-94F.png,131-37F.png,sd,inv,131-94F_mask.png,1.0145321999880252,1,18.555068267735685,433,2
220_eyes.png,216_eyes.png,isod,up,220_eyes_mask.png,0.7173315999971237,1,5.428835233189813,434,2
225-96F.png,225-30F.png,sd,inv,225-96F_mask.png,0.536575999998604,0,5.428835233189813,435,1
20-13F.png,208-65F.png,dd,up,20-13F_mask.png,1.2508897999941837,1,5.428835233189813,436,1
37_eyes.png,37_eyes.png,isos,inv,37_eyes_mask.png,0.656504099999438,1,18.555068267735685,437,1
100_eyes.png,125_eyes.png,isod,up,100_eyes_mask.png,0.589910399998189,1,7.381517178581321,438,1
139-135F.png,103-197F.png,dd,up,139-135F_mask.png,0.7017867999966256,1,7.381517178581321,439,2
225-96F.png,225-96F.png,ss,up,225-96F_mask.png,0.9935293000016827,1,7.381517178581321,440,2
44-125.png,123-125.png,ds,inv,44-125_mask.png,0.8095904999936465,0,7.381517178581321,441,2
146-25.png,146-7.png,sd,up,146-25_mask.png,0.8247941000008723,1,7.381517178581321,442,2
145-66.png,145-148.png,sd,up,145-66_mask.png,0.8792489999905229,1,7.381517178581321,443,1
192_eyes.png,103_eyes.png,isod,up,192_eyes_mask.png,0.7402046000061091,1,7.381517178581321,444,1
192-220F.png,111-220F.png,ds,inv,192-220F_mask.png,0.6221699999878183,1,7.381517178581321,445,1
65_eyes.png,13_eyes.png,isod,up,65_eyes_mask.png,0.652997699988191,1,5.0274402453675116,446,2
139-197F.png,103-135F.png,dd,inv,139-197F_mask.png,0.9943710999941686,0,5.0274402453675116,447,2
128-96F.png,225-30F.png,dd,up,128-96F_mask.png,1.2102065000071889,0,5.0274402453675116,448,2
96-128F.png,96-225F.png,sd,up,96-128F_mask.png,0.624876799993217,1,5.0274402453675116,449,1
197-192F.png,197-192F.png,ss,up,197-192F_mask.png,0.9590877000009641,1,5.0274402453675116,450,2
139-135F.png,139-197F.png,sd,inv,139-135F_mask.png,0.9441184000024805,1,5.0274402453675116,451,2
103_eyes.png,103_eyes.png,isos,inv,103_eyes_mask.png,0.7064127000048757,1,21.636252618780404,452,2
123-100.png,44-100.png,ds,inv,123-100_mask.png,0.8614775000023656,1,21.636252618780404,453,1
225-30F.png,128-96F.png,dd,inv,225-30F_mask.png,0.7705108999944059,1,21.636252618780404,454,2
44-125.png,123-125.png,ds,up,44-125_mask.png,0.6991485000035027,1,21.636252618780404,455,1
216_eyes.png,216_eyes.png,isos,inv,216_eyes_mask.png,0.6140999000053853,1,21.636252618780404,456,2
208-13F.png,208-65F.png,sd,inv,208-13F_mask.png,0.701213699998334,0,21.636252618780404,457,1
225-96F.png,225-96F.png,ss,inv,225-96F_mask.png,0.7360864000074798,0,21.636252618780404,458,1
7-55.png,25-147.png,dd,inv,7-55_mask.png,0.8905280000035418,1,21.636252618780404,459,1
96_eyes.png,96_eyes.png,isos,up,96_eyes_mask.png,1.5261170999874594,0,5.0274402453675116,460,2
96-225F.png,13-225F.png,ds,up,96-225F_mask.png,0.8806054000015138,0,5.0274402453675116,461,2
128_eyes.png,128_eyes.png,isos,inv,128_eyes_mask.png,0.6284671000030357,1,17.183151257649243,462,1
30_eyes.png,96_eyes.png,isod,inv,30_eyes_mask.png,1.3314704000076745,0,17.183151257649243,463,1
147_eyes.png,55_eyes.png,isod,inv,147_eyes_mask.png,0.6538830000063172,1,20.036520266739068,464,2
24-2.png,160-2.png,ds,inv,24-2_mask.png,0.666442100002314,1,20.036520266739068,465,2
208-65F.png,208-65F.png,ss,up,208-65F_mask.png,1.5426979000039864,0,20.036520266739068,466,1
103-197F.png,103-197F.png,ss,inv,103-197F_mask.png,0.576241900009336,1,20.036520266739068,467,2
123-100.png,123-100.png,ss,inv,123-100_mask.png,1.0807280000008177,1,20.036520266739068,468,2
147_eyes.png,147_eyes.png,isos,up,147_eyes_mask.png,0.8925536000024294,1,7.381517178581321,469,1
123-125.png,44-125.png,ds,up,123-125_mask.png,1.2799417000060203,1,7.381517178581321,470,2
24-76.png,160-76.png,ds,up,24-76_mask.png,0.62803829999757,1,7.381517178581321,471,1
145-66.png,52-148.png,dd,up,145-66_mask.png,0.9859349000034854,0,7.381517178581321,472,1
135-103F.png,135-103F.png,ss,inv,135-103F_mask.png,1.0892889000097057,0,7.381517178581321,473,1
192_eyes.png,103_eyes.png,isod,inv,192_eyes_mask.png,0.7171965000015916,1,28.555068267735685,474,1
216_eyes.png,220_eyes.png,isod,inv,216_eyes_mask.png,0.7122123000008287,1,30.036520266739068,475,2
103-197F.png,103-197F.png,ss,up,103-197F_mask.png,0.8822866999980761,1,30.036520266739068,476,1
41-208F.png,41-20F.png,sd,up,41-208F_mask.png,0.5982369000121253,1,30.036520266739068,477,2
38_eyes.png,38_eyes.png,isos,up,38_eyes_mask.png,0.8772071999992477,0,16.835745595776103,478,1
93_eyes.png,93_eyes.png,isos,up,93_eyes_mask.png,1.009674900007667,1,15.428835233189812,479,2
52-148.png,52-66.png,sd,up,52-148_mask.png,0.6369300999940606,0,15.428835233189812,480,1
65_eyes.png,13_eyes.png,isod,inv,65_eyes_mask.png,0.6436155999981565,1,18.555068267735685,481,1
25-147.png,25-147.png,ss,inv,25-147_mask.png,0.529685999994399,1,18.555068267735685,482,1
7-147.png,25-55.png,dd,inv,7-147_mask.png,1.0118562999996357,0,18.555068267735685,483,2
146_eyes.png,87_eyes.png,isod,inv,146_eyes_mask.png,0.6665588000032585,1,20.036520266739068,484,2
197_eyes.png,197_eyes.png,isos,up,197_eyes_mask.png,1.1197138999996241,0,5.428835233189813,485,2
131-37F.png,129-37F.png,ds,up,131-37F_mask.png,0.8183733000041684,0,5.428835233189813,486,1
151-87.png,49-87.png,ds,inv,151-87_mask.png,0.6890247999981511,1,5.428835233189813,487,1
147-7.png,147-7.png,ss,up,147-7_mask.png,0.7411740999959875,1,5.428835233189813,488,1
146_eyes.png,146_eyes.png,isos,inv,146_eyes_mask.png,0.5749644000025,1,20.036520266739068,489,2
65-208F.png,65-20F.png,sd,up,65-208F_mask.png,0.550454099997296,1,20.036520266739068,490,1
17-9.png,17-38.png,sd,up,17-9_mask.png,1.4720450999884633,1,20.036520266739068,491,2
76_eyes.png,2_eyes.png,isod,inv,76_eyes_mask.png,0.6450893000001088,1,18.555068267735685,492,1
49-87.png,151-146.png,dd,inv,49-87_mask.png,0.658276800008025,1,18.555068267735685,493,1
94_eyes.png,37_eyes.png,isod,up,94_eyes_mask.png,0.5994370999978855,0,5.862277928868478,494,2
13_eyes.png,13_eyes.png,isos,inv,13_eyes_mask.png,0.5751347000041278,1,18.555068267735685,495,1
76_eyes.png,76_eyes.png,isos,up,76_eyes_mask.png,0.7597826999990502,1,6.8357455957761015,496,1
13_eyes.png,65_eyes.png,isod,inv,13_eyes_mask.png,0.6415359000093304,1,20.036520266739068,497,2
8_eyes.png,93_eyes.png,isod,up,8_eyes_mask.png,0.7193094000103883,1,6.8357455957761015,498,1
24-76.png,160-2.png,dd,inv,24-76_mask.png,0.7944188000110444,0,6.8357455957761015,499,2
96-128F.png,96-225F.png,sd,inv,96-128F_mask.png,1.0176684000034584,1,6.8357455957761015,500,2
225-96F.png,128-30F.png,dd,up,225-96F_mask.png,0.7368060000007972,1,6.8357455957761015,501,2
49-87.png,49-87.png,ss,inv,49-87_mask.png,0.7551640000019688,1,6.8357455957761015,502,2
125-38.png,17-38.png,ds,inv,125-38_mask.png,1.0123829999938607,1,6.8357455957761015,503,1
96-225F.png,13-128F.png,dd,inv,96-225F_mask.png,0.9552725999965332,0,6.8357455957761015,504,1
225_eyes.png,225_eyes.png,isos,up,225_eyes_mask.png,0.8122577000031015,0,6.330327047908198,505,2
52-66.png,52-148.png,sd,inv,52-66_mask.png,1.4833382000069832,1,6.330327047908198,506,1
111-216F.png,111-216F.png,ss,up,111-216F_mask.png,0.5681065000098897,1,6.330327047908198,507,2
103-135F.png,139-197F.png,dd,up,103-135F_mask.png,0.529225199992652,1,6.330327047908198,508,2
96-128F.png,13-225F.png,dd,up,96-128F_mask.png,1.307255499996245,1,6.330327047908198,509,1
139-135F.png,103-135F.png,ds,inv,139-135F_mask.png,0.5743031000019982,1,6.330327047908198,510,2
49-146.png,151-146.png,ds,up,49-146_mask.png,0.8061033000121824,0,6.330327047908198,511,2
148_eyes.png,148_eyes.png,isos,up,148_eyes_mask.png,0.7416916000074707,1,6.330327047908198,512,1
197_eyes.png,135_eyes.png,isod,up,197_eyes_mask.png,0.9188837999972748,1,6.330327047908198,513,1
41-20F.png,41-20F.png,ss,inv,41-20F_mask.png,0.777683899999829,1,6.330327047908198,514,1
135_eyes.png,135_eyes.png,isos,inv,135_eyes_mask.png,0.6578548999968916,1,18.555068267735685,515,1
49-87.png,151-87.png,ds,up,49-87_mask.png,1.1516880999988643,0,18.555068267735685,516,2
125-9.png,125-38.png,sd,inv,125-9_mask.png,0.7927013000007719,1,18.555068267735685,517,2
125-38.png,17-9.png,dd,up,125-38_mask.png,0.7130230000038864,1,18.555068267735685,518,1
2-93.png,46-93.png,ds,inv,2-93_mask.png,1.268080399997416,0,18.555068267735685,519,2
8_eyes.png,8_eyes.png,isos,inv,8_eyes_mask.png,0.8170382999960566,1,20.036520266739068,520,2
103-135F.png,139-135F.png,ds,up,103-135F_mask.png,0.8080084999965038,1,20.036520266739068,521,1
192-220F.png,192-216F.png,sd,up,192-220F_mask.png,0.6470435999945039,1,20.036520266739068,522,2
123-125.png,123-100.png,sd,inv,123-125_mask.png,0.6283913999941433,1,20.036520266739068,523,1
9_eyes.png,38_eyes.png,isod,up,9_eyes_mask.png,0.7543990999984089,1,7.381517178581321,524,2
131-37F.png,131-37F.png,ss,up,131-37F_mask.png,0.7643565999896964,1,7.381517178581321,525,2
2-8.png,2-8.png,ss,inv,2-8_mask.png,1.084506400002283,1,7.381517178581321,526,2
151-87.png,151-87.png,ss,up,151-87_mask.png,0.8889593000058085,1,7.381517178581321,527,1
216_eyes.png,220_eyes.png,isod,inv,216_eyes_mask.png,0.6215946000011172,1,20.036520266739068,528,2
147-25.png,146-7.png,dd,up,147-25_mask.png,0.9165938000078313,1,20.036520266739068,529,1
65_eyes.png,13_eyes.png,isod,inv,65_eyes_mask.png,0.807560499990359,1,17.183151257649243,530,1
9_eyes.png,9_eyes.png,isos,up,9_eyes_mask.png,0.6780960000032792,1,5.862277928868478,531,1
66_eyes.png,148_eyes.png,isod,up,66_eyes_mask.png,0.705251399995177,1,5.428835233189813,532,1
145-66.png,145-66.png,ss,inv,145-66_mask.png,0.7002202000003308,1,5.428835233189813,533,2
94_eyes.png,94_eyes.png,isos,up,94_eyes_mask.png,0.6951412999915192,1,6.8357455957761015,534,2
128-30F.png,225-96F.png,dd,inv,128-30F_mask.png,1.067525399994338,1,6.8357455957761015,535,1
225-30F.png,225-30F.png,ss,up,225-30F_mask.png,0.7763370000029681,1,6.8357455957761015,536,1
147-7.png,147-25.png,sd,up,147-7_mask.png,0.6324784000025829,1,6.8357455957761015,537,2
192-216F.png,192-220F.png,sd,inv,192-216F_mask.png,0.773862400004873,1,6.8357455957761015,538,1
20_eyes.png,208_eyes.png,isod,up,20_eyes_mask.png,1.5030512000084855,0,6.8357455957761015,539,2
37_eyes.png,37_eyes.png,isos,up,37_eyes_mask.png,0.8258943999971962,0,5.0274402453675116,540,1
103-197F.png,139-197F.png,ds,inv,103-197F_mask.png,0.8799352999922121,1,5.0274402453675116,541,1
13_eyes.png,13_eyes.png,isos,inv,13_eyes_mask.png,0.6205704000021797,1,20.036520266739068,542,2
20-65F.png,20-65F.png,ss,up,20-65F_mask.png,0.7315983000007691,1,20.036520266739068,543,2
49-87.png,49-146.png,sd,up,49-87_mask.png,0.6378198999882443,1,20.036520266739068,544,1
225-30F.png,128-96F.png,dd,up,225-30F_mask.png,0.8603710000024876,1,20.036520266739068,545,2
55_eyes.png,55_eyes.png,isos,up,55_eyes_mask.png,0.6249217000004137,0,7.381517178581321,546,2
65_eyes.png,65_eyes.png,isos,inv,65_eyes_mask.png,0.6239997999946354,1,17.183151257649243,547,1
87_eyes.png,146_eyes.png,isod,inv,87_eyes_mask.png,0.7578343000059249,1,17.183151257649243,548,1
129-37F.png,131-94F.png,dd,inv,129-37F_mask.png,0.7271839999884833,1,17.183151257649243,549,1
151-146.png,49-146.png,ds,inv,151-146_mask.png,0.6257888999971328,1,17.183151257649243,550,2
49-146.png,49-146.png,ss,inv,49-146_mask.png,0.7192611999926157,1,17.183151257649243,551,2
123-100.png,44-100.png,ds,up,123-100_mask.png,1.2666506999958074,1,17.183151257649243,552,2
87_eyes.png,146_eyes.png,isod,up,87_eyes_mask.png,0.8634949999977835,1,18.607263960508302,553,2
147-25.png,146-25.png,ds,inv,147-25_mask.png,0.7622625000076368,1,18.607263960508302,554,1
135-103F.png,197-103F.png,ds,inv,135-103F_mask.png,0.8122958000021754,1,18.607263960508302,555,2
216_eyes.png,216_eyes.png,isos,inv,216_eyes_mask.png,0.6433945000026142,1,27.183151257649243,556,1
49-146.png,49-87.png,sd,inv,49-146_mask.png,0.7522307000035653,1,27.183151257649243,557,2
128-30F.png,225-30F.png,ds,up,128-30F_mask.png,1.7059689000016078,1,27.183151257649243,558,1
208-65F.png,20-13F.png,dd,up,208-65F_mask.png,0.60384250000061,1,27.183151257649243,559,2
13-225F.png,96-128F.png,dd,up,13-225F_mask.png,0.6517801000009058,1,27.183151257649243,560,1
148_eyes.png,148_eyes.png,isos,inv,148_eyes_mask.png,0.5929185999993933,1,20.036520266739068,561,2
128-96F.png,225-96F.png,ds,up,128-96F_mask.png,0.6321151000011014,1,20.036520266739068,562,2
123-125.png,123-125.png,ss,inv,123-125_mask.png,0.6626440000109142,1,20.036520266739068,563,1
25-55.png,25-147.png,sd,inv,25-55_mask.png,0.5399850999965565,1,20.036520266739068,564,1
197-103F.png,197-192F.png,sd,inv,197-103F_mask.png,1.085576299999957,1,20.036520266739068,565,2
139-135F.png,139-135F.png,ss,up,139-135F_mask.png,0.5941308999899775,1,20.036520266739068,566,1
111-220F.png,192-220F.png,ds,up,111-220F_mask.png,0.7622123000037391,1,20.036520266739068,567,1
111-220F.png,111-220F.png,ss,inv,111-220F_mask.png,0.5793361000105506,1,20.036520266739068,568,1
220_eyes.png,216_eyes.png,isod,inv,220_eyes_mask.png,0.5960136000066996,1,30.036520266739068,569,2
129-37F.png,129-94F.png,sd,up,129-37F_mask.png,0.7719461000087904,1,30.036520266739068,570,2
44-125.png,123-100.png,dd,inv,44-125_mask.png,0.6125445999932708,1,30.036520266739068,571,2
160-76.png,24-2.png,dd,inv,160-76_mask.png,0.9319269999978133,0,30.036520266739068,572,2
148_eyes.png,66_eyes.png,isod,up,148_eyes_mask.png,0.6301302000065334,1,16.3303270479082,573,1
13-225F.png,13-128F.png,sd,up,13-225F_mask.png,0.7319422000000486,1,16.3303270479082,574,1
25-55.png,25-55.png,ss,up,25-55_mask.png,0.7658311999985017,1,16.3303270479082,575,2
17-38.png,125-9.png,dd,inv,17-38_mask.png,0.615174599995953,1,16.3303270479082,576,2
146-7.png,147-25.png,dd,inv,146-7_mask.png,0.8295340000040596,1,16.3303270479082,577,1
129-37F.png,129-37F.png,ss,up,129-37F_mask.png,0.5242422000010265,1,16.3303270479082,578,1
225_eyes.png,128_eyes.png,isod,inv,225_eyes_mask.png,0.5271765999932541,1,17.183151257649243,579,1
148_eyes.png,148_eyes.png,isos,inv,148_eyes_mask.png,0.48901410000689793,1,17.183151257649243,580,1
131-94F.png,129-94F.png,ds,up,131-94F_mask.png,1.9252312000025995,1,17.183151257649243,581,1
96-128F.png,96-128F.png,ss,up,96-128F_mask.png,0.7429454000084661,1,17.183151257649243,582,2
87_eyes.png,87_eyes.png,isos,up,87_eyes_mask.png,0.6323244000086561,1,8.607263960508302,583,2
160-2.png,24-2.png,ds,up,160-2_mask.png,0.7668578000011621,1,8.607263960508302,584,2
128_eyes.png,225_eyes.png,isod,up,128_eyes_mask.png,0.7202014999929816,1,6.330327047908198,585,1
160-2.png,160-76.png,sd,up,160-2_mask.png,1.0661269999982323,1,6.330327047908198,586,2
25_eyes.png,7_eyes.png,isod,inv,25_eyes_mask.png,0.6230167000030633,0,20.036520266739068,587,2
208-13F.png,208-13F.png,ss,up,208-13F_mask.png,0.46958279999671504,1,20.036520266739068,588,1
41-208F.png,41-20F.png,sd,inv,41-208F_mask.png,0.6421626000083052,1,20.036520266739068,589,2
135-103F.png,197-192F.png,dd,up,135-103F_mask.png,1.912229199995636,1,20.036520266739068,590,2
66_eyes.png,148_eyes.png,isod,inv,66_eyes_mask.png,0.635618100001011,1,20.036520266739068,591,2
146-25.png,146-25.png,ss,inv,146-25_mask.png,0.6172932000044966,1,20.036520266739068,592,1
192_eyes.png,192_eyes.png,isos,up,192_eyes_mask.png,0.703949399990961,1,6.330327047908198,593,1
197-103F.png,135-192F.png,dd,up,197-103F_mask.png,0.5959948999952758,1,6.330327047908198,594,1
125_eyes.png,125_eyes.png,isos,inv,125_eyes_mask.png,0.5792518999951426,1,17.183151257649243,595,1
20_eyes.png,20_eyes.png,isos,up,20_eyes_mask.png,0.8199573000019882,0,6.330327047908198,596,1
7-55.png,7-147.png,sd,inv,7-55_mask.png,1.0586373999976786,1,6.330327047908198,597,2
2-8.png,46-8.png,ds,inv,2-8_mask.png,0.6302799999975832,1,6.330327047908198,598,1
46-8.png,46-8.png,ss,inv,46-8_mask.png,0.9796725000051083,1,6.330327047908198,599,1
103_eyes.png,192_eyes.png,isod,up,103_eyes_mask.png,0.6523612000019057,1,8.607263960508302,600,2
65_eyes.png,65_eyes.png,isos,inv,65_eyes_mask.png,0.5379973999952199,1,20.036520266739068,601,2
44-100.png,123-125.png,dd,up,44-100_mask.png,0.5967247999942629,1,20.036520266739068,602,2
41-208F.png,41-208F.png,ss,inv,41-208F_mask.png,0.6206506000016816,1,20.036520266739068,603,2
30_eyes.png,96_eyes.png,isod,up,30_eyes_mask.png,0.6996113000059268,1,6.8357455957761015,604,1
145-148.png,52-148.png,ds,up,145-148_mask.png,0.8230289000057383,1,6.8357455957761015,605,1
7-147.png,25-55.png,dd,up,7-147_mask.png,0.6615308999898843,0,6.8357455957761015,606,1
103-135F.png,139-135F.png,ds,inv,103-135F_mask.png,0.643017599999439,1,6.8357455957761015,607,1
13-225F.png,13-225F.png,ss,inv,13-225F_mask.png,0.6883162000012817,1,6.8357455957761015,608,2
87_eyes.png,146_eyes.png,isod,inv,87_eyes_mask.png,0.8751171000039903,1,17.183151257649243,609,1
20-13F.png,208-13F.png,ds,inv,20-13F_mask.png,0.6962405999947805,1,17.183151257649243,610,2
87_eyes.png,146_eyes.png,isod,up,87_eyes_mask.png,0.7643626999924891,1,7.970863616012756,611,2
103-135F.png,103-197F.png,sd,up,103-135F_mask.png,0.7322241999936523,0,7.970863616012756,612,2
151-87.png,49-87.png,ds,up,151-87_mask.png,0.742218999992474,1,7.970863616012756,613,2
139-135F.png,103-197F.png,dd,inv,139-135F_mask.png,0.9363386999903014,0,7.970863616012756,614,1
160-76.png,24-76.png,ds,inv,160-76_mask.png,0.6027223999990383,1,7.970863616012756,615,2
128-30F.png,128-96F.png,sd,inv,128-30F_mask.png,1.0899807999958284,1,7.970863616012756,616,1
30_eyes.png,30_eyes.png,isos,inv,30_eyes_mask.png,0.7976651000062702,1,20.036520266739068,617,2
135-103F.png,135-192F.png,sd,up,135-103F_mask.png,0.6449887999915518,1,20.036520266739068,618,1
52-66.png,52-66.png,ss,up,52-66_mask.png,0.594927900005132,1,20.036520266739068,619,2
13-128F.png,13-225F.png,sd,up,13-128F_mask.png,0.7226489999884507,1,20.036520266739068,620,1
2_eyes.png,2_eyes.png,isos,up,2_eyes_mask.png,0.9495338999986416,1,7.970863616012756,621,2
20-65F.png,208-13F.png,dd,inv,20-65F_mask.png,0.8303363999875728,0,7.970863616012756,622,2
17-9.png,17-38.png,sd,inv,17-9_mask.png,0.6842780000006314,1,7.970863616012756,623,1
8_eyes.png,93_eyes.png,isod,inv,8_eyes_mask.png,0.6193332999973791,1,17.183151257649243,624,1
38_eyes.png,38_eyes.png,isos,inv,38_eyes_mask.png,0.8259374999906868,1,15.9126704834961,625,1
20-13F.png,20-13F.png,ss,inv,20-13F_mask.png,0.49600689999351744,1,15.9126704834961,626,2
151-87.png,151-146.png,sd,inv,151-87_mask.png,0.5963071000005584,1,15.9126704834961,627,2
129-94F.png,131-94F.png,ds,up,129-94F_mask.png,0.7558902000018861,1,15.9126704834961,628,1
17-9.png,17-9.png,ss,up,17-9_mask.png,0.5804560999968089,1,15.9126704834961,629,1
125_eyes.png,100_eyes.png,isod,inv,125_eyes_mask.png,0.5006340999971144,1,20.036520266739068,630,2
66_eyes.png,66_eyes.png,isos,inv,66_eyes_mask.png,0.5752269000076922,1,15.9126704834961,631,1
96-128F.png,96-128F.png,ss,inv,96-128F_mask.png,0.5676335000025574,1,15.9126704834961,632,2
93_eyes.png,8_eyes.png,isod,up,93_eyes_mask.png,0.5522169000032591,1,6.8357455957761015,633,1
139-197F.png,103-197F.png,ds,inv,139-197F_mask.png,1.0899443000089377,0,6.8357455957761015,634,2
225-96F.png,225-30F.png,sd,up,225-96F_mask.png,0.6450012999994215,1,6.8357455957761015,635,1
100_eyes.png,100_eyes.png,isos,up,100_eyes_mask.png,0.7551716000016313,1,6.8357455957761015,636,1
146-7.png,146-7.png,ss,up,146-7_mask.png,0.7164779000013368,1,6.8357455957761015,637,1
192-216F.png,192-216F.png,ss,up,192-216F_mask.png,0.7590285999904154,1,6.8357455957761015,638,2
46-8.png,2-8.png,ds,up,46-8_mask.png,0.9195945999963442,1,6.8357455957761015,639,1
30_eyes.png,30_eyes.png,isos,up,30_eyes_mask.png,0.6750481999915792,0,7.381517178581321,640,2
25_eyes.png,25_eyes.png,isos,up,25_eyes_mask.png,0.7112297999992734,1,8.607263960508302,641,2
55_eyes.png,147_eyes.png,isod,up,55_eyes_mask.png,0.896624700006214,1,6.330327047908198,642,1
208-65F.png,208-13F.png,sd,inv,208-65F_mask.png,1.020338600006653,0,6.330327047908198,643,1
135-103F.png,135-103F.png,ss,up,135-103F_mask.png,1.0586400999891339,1,6.330327047908198,644,2
225-30F.png,128-30F.png,ds,up,225-30F_mask.png,0.7676202999864472,1,6.330327047908198,645,2
44-100.png,44-100.png,ss,inv,44-100_mask.png,0.5195038000092609,1,6.330327047908198,646,1
2-93.png,2-8.png,sd,inv,2-93_mask.png,0.6502991000015754,1,6.330327047908198,647,1
20-13F.png,20-65F.png,sd,up,20-13F_mask.png,0.9109010999964084,0,6.330327047908198,648,2
220_eyes.png,220_eyes.png,isos,up,220_eyes_mask.png,0.8107491999980994,1,16.3303270479082,649,1
20_eyes.png,20_eyes.png,isos,inv,20_eyes_mask.png,0.6898948000016389,1,20.036520266739068,650,2
25-147.png,7-55.png,dd,up,25-147_mask.png,0.6527200999989873,1,20.036520266739068,651,1
225-30F.png,128-30F.png,ds,inv,225-30F_mask.png,0.6826278999942588,1,20.036520266739068,652,1
65-20F.png,65-208F.png,sd,up,65-20F_mask.png,0.8631785000034142,1,20.036520266739068,653,1
146_eyes.png,87_eyes.png,isod,inv,146_eyes_mask.png,0.6681285999948159,1,25.9126704834961,654,1
131-37F.png,129-94F.png,dd,inv,131-37F_mask.png,0.7926072999980533,1,25.9126704834961,655,2
13_eyes.png,65_eyes.png,isod,inv,13_eyes_mask.png,0.8327958000008948,1,20.036520266739068,656,2
76_eyes.png,2_eyes.png,isod,up,76_eyes_mask.png,0.6469636999972863,1,7.970863616012756,657,2
225-30F.png,225-30F.png,ss,inv,225-30F_mask.png,0.6364522999938345,1,7.970863616012756,658,1
41-20F.png,65-208F.png,dd,up,41-20F_mask.png,0.5692960999876959,1,7.970863616012756,659,2
145-148.png,52-148.png,ds,inv,145-148_mask.png,0.6901592999929562,1,7.970863616012756,660,2
129-37F.png,131-94F.png,dd,up,129-37F_mask.png,0.8934346000023652,1,7.970863616012756,661,1
151-146.png,49-146.png,ds,up,151-146_mask.png,0.9767668999993475,1,7.970863616012756,662,2
123-100.png,44-125.png,dd,inv,123-100_mask.png,0.9379006999952253,1,7.970863616012756,663,1
2-93.png,46-8.png,dd,up,2-93_mask.png,0.7557071000046562,1,7.970863616012756,664,2
25_eyes.png,7_eyes.png,isod,up,25_eyes_mask.png,0.6212719000031939,1,17.970863616012757,665,2
44-100.png,123-125.png,dd,inv,44-100_mask.png,0.8445850999996765,1,17.970863616012757,666,1
24-76.png,160-76.png,ds,inv,24-76_mask.png,0.7137801000062609,1,17.970863616012757,667,1
129-94F.png,129-37F.png,sd,up,129-94F_mask.png,0.6287050999962958,1,17.970863616012757,668,2
147-25.png,146-7.png,dd,inv,147-25_mask.png,1.0431606999918586,0,17.970863616012757,669,2
94_eyes.png,94_eyes.png,isos,inv,94_eyes_mask.png,0.838114999991376,1,30.036520266739068,670,2
20-65F.png,20-13F.png,sd,inv,20-65F_mask.png,1.1004864999995334,0,30.036520266739068,671,2
197_eyes.png,197_eyes.png,isos,up,197_eyes_mask.png,0.6453015999868512,1,6.330327047908198,672,1
125-9.png,17-9.png,ds,inv,125-9_mask.png,0.801756300003035,0,6.330327047908198,673,2
2-93.png,46-93.png,ds,up,2-93_mask.png,0.5785442000051262,1,6.330327047908198,674,1
20-13F.png,20-13F.png,ss,up,20-13F_mask.png,0.8267969000007724,1,6.330327047908198,675,2
37_eyes.png,94_eyes.png,isod,up,37_eyes_mask.png,0.849792900000466,1,6.330327047908198,676,1
208-65F.png,208-65F.png,ss,inv,208-65F_mask.png,0.5984919000038644,1,6.330327047908198,677,1
65-208F.png,41-208F.png,ds,up,65-208F_mask.png,0.6620320000074571,1,6.330327047908198,678,2
197-103F.png,135-192F.png,dd,inv,197-103F_mask.png,0.7866466999985278,1,6.330327047908198,679,1
2_eyes.png,76_eyes.png,isod,inv,2_eyes_mask.png,0.6588980999949854,1,15.9126704834961,680,1
208-65F.png,20-13F.png,dd,inv,208-65F_mask.png,0.8164897999959067,0,15.9126704834961,681,2
25-147.png,25-55.png,sd,inv,25-147_mask.png,0.6463084999995772,1,15.9126704834961,682,1
208_eyes.png,208_eyes.png,isos,inv,208_eyes_mask.png,0.6681761999934679,1,15.9126704834961,683,1
96_eyes.png,30_eyes.png,isod,inv,96_eyes_mask.png,0.7510992000024999,1,20.036520266739068,684,2
96_eyes.png,30_eyes.png,isod,up,96_eyes_mask.png,0.7686247000092408,1,7.970863616012756,685,2
17-38.png,125-9.png,dd,up,17-38_mask.png,1.145168700008071,1,7.970863616012756,686,2
128_eyes.png,225_eyes.png,isod,inv,128_eyes_mask.png,0.7150642000051448,0,18.555068267735685,687,2
123-125.png,44-100.png,dd,up,123-125_mask.png,0.6297812999982852,1,18.555068267735685,688,1
208-13F.png,20-13F.png,ds,inv,208-13F_mask.png,0.6363971999962814,1,18.555068267735685,689,2
129-37F.png,131-37F.png,ds,up,129-37F_mask.png,0.6425803000020096,1,18.555068267735685,690,1
123-100.png,123-125.png,sd,inv,123-100_mask.png,0.7601999000034994,1,18.555068267735685,691,2
225_eyes.png,128_eyes.png,isod,up,225_eyes_mask.png,1.1303904000087641,1,7.970863616012756,692,2
148_eyes.png,66_eyes.png,isod,up,148_eyes_mask.png,0.683767299997271,0,5.862277928868478,693,1
52-66.png,52-66.png,ss,inv,52-66_mask.png,1.055152499990072,1,5.862277928868478,694,2
41-208F.png,41-208F.png,ss,up,41-208F_mask.png,0.62822430000233,1,5.862277928868478,695,1
135-192F.png,135-192F.png,ss,up,135-192F_mask.png,0.8111070000013569,1,5.862277928868478,696,1
216_eyes.png,216_eyes.png,isos,up,216_eyes_mask.png,0.906547499995213,1,6.8357455957761015,697,1
52-66.png,145-66.png,ds,inv,52-66_mask.png,0.7735193000116851,1,6.8357455957761015,698,1
208-13F.png,208-65F.png,sd,up,208-13F_mask.png,0.7820216999971308,0,6.8357455957761015,699,2
192_eyes.png,192_eyes.png,isos,inv,192_eyes_mask.png,0.7258469000080368,1,20.036520266739068,700,2
46-8.png,46-93.png,sd,up,46-8_mask.png,0.5121546000009403,1,20.036520266739068,701,2
7-55.png,7-147.png,sd,up,7-55_mask.png,0.947126400002162,0,20.036520266739068,702,1
49-87.png,151-146.png,dd,up,49-87_mask.png,0.8847696000011638,0,20.036520266739068,703,2
225-30F.png,225-96F.png,sd,up,225-30F_mask.png,0.8331331999943359,0,20.036520266739068,704,1
24-2.png,24-2.png,ss,inv,24-2_mask.png,0.8391824999998789,1,20.036520266739068,705,2
46-93.png,2-8.png,dd,inv,46-93_mask.png,0.6612535000022035,0,20.036520266739068,706,2
25-147.png,7-147.png,ds,up,25-147_mask.png,0.6981354000017745,1,20.036520266739068,707,2
13-128F.png,13-225F.png,sd,inv,13-128F_mask.png,0.7339052000024822,1,20.036520266739068,708,1
197-192F.png,135-103F.png,dd,inv,197-192F_mask.png,1.1440598000044702,1,20.036520266739068,709,1
131-94F.png,131-94F.png,ss,up,131-94F_mask.png,0.7217782999941846,1,20.036520266739068,710,2
147_eyes.png,147_eyes.png,isos,inv,147_eyes_mask.png,0.5406266000063624,1,15.9126704834961,711,1
25_eyes.png,25_eyes.png,isos,up,25_eyes_mask.png,0.6460707999940496,1,7.381517178581321,712,2
128-30F.png,128-30F.png,ss,inv,128-30F_mask.png,0.7077026000042679,1,7.381517178581321,713,1
49-146.png,151-146.png,ds,inv,49-146_mask.png,0.998795199993765,1,7.381517178581321,714,1
125_eyes.png,125_eyes.png,isos,up,125_eyes_mask.png,0.9825547000073129,0,7.381517178581321,715,2
197_eyes.png,197_eyes.png,isos,inv,197_eyes_mask.png,1.3824781000002986,1,20.036520266739068,716,2
125-9.png,17-38.png,dd,up,125-9_mask.png,1.0064581999904476,0,20.036520266739068,717,1
225_eyes.png,128_eyes.png,isod,inv,225_eyes_mask.png,0.8297462000045925,1,14.736125994561542,718,1
135-103F.png,135-192F.png,sd,inv,135-103F_mask.png,0.6736598999996204,0,14.736125994561542,719,2
17-9.png,125-38.png,dd,inv,17-9_mask.png,0.6707249000028241,1,14.736125994561542,720,1
44-125.png,123-100.png,dd,up,44-125_mask.png,0.6202667000034126,1,14.736125994561542,721,1
9_eyes.png,38_eyes.png,isod,up,9_eyes_mask.png,0.6434500000032131,1,6.330327047908198,722,1
20_eyes.png,208_eyes.png,isod,inv,20_eyes_mask.png,0.8652338000101736,1,14.736125994561542,723,1
44-125.png,44-100.png,sd,inv,44-125_mask.png,0.693902099999832,1,14.736125994561542,724,1
7_eyes.png,7_eyes.png,isos,up,7_eyes_mask.png,0.7459345999959623,1,6.330327047908198,725,1
100_eyes.png,125_eyes.png,isod,inv,100_eyes_mask.png,0.6199052000010852,1,20.036520266739068,726,2
38_eyes.png,9_eyes.png,isod,up,38_eyes_mask.png,0.6186107999965316,1,7.970863616012756,727,2
131-37F.png,129-94F.png,dd,up,131-37F_mask.png,0.6975861999962945,0,7.970863616012756,728,2
100_eyes.png,125_eyes.png,isod,inv,100_eyes_mask.png,0.7014381000044523,1,14.736125994561542,729,1
96_eyes.png,30_eyes.png,isod,up,96_eyes_mask.png,0.6648707999993348,1,6.330327047908198,730,1
128_eyes.png,128_eyes.png,isos,up,128_eyes_mask.png,0.6609787999914261,1,7.970863616012756,731,2
147-25.png,146-25.png,ds,up,147-25_mask.png,0.5461909000005107,0,7.970863616012756,732,2
2-93.png,2-93.png,ss,inv,2-93_mask.png,0.6356487000011839,1,7.970863616012756,733,2
160-76.png,24-2.png,dd,up,160-76_mask.png,0.7545499999978347,0,7.970863616012756,734,1
66_eyes.png,66_eyes.png,isos,inv,66_eyes_mask.png,0.5241767000115942,1,20.036520266739068,735,2
125-38.png,17-38.png,ds,up,125-38_mask.png,0.8146472999942489,0,20.036520266739068,736,1
139-135F.png,139-197F.png,sd,up,139-135F_mask.png,0.501671099991654,1,20.036520266739068,737,2
208_eyes.png,208_eyes.png,isos,up,208_eyes_mask.png,0.5777033000049414,1,16.3303270479082,738,1
129-94F.png,131-94F.png,ds,inv,129-94F_mask.png,0.5385146999906283,1,16.3303270479082,739,1
128_eyes.png,128_eyes.png,isos,inv,128_eyes_mask.png,0.6363851000060095,1,13.646572368403794,740,1
7-55.png,7-55.png,ss,inv,7-55_mask.png,0.7061568000062834,1,13.646572368403794,741,1
208_eyes.png,20_eyes.png,isod,up,208_eyes_mask.png,0.5647772999946028,1,7.970863616012756,742,2
17-38.png,17-38.png,ss,up,17-38_mask.png,0.7576487999904202,1,7.970863616012756,743,2
128-96F.png,128-30F.png,sd,up,128-96F_mask.png,0.8472602999972878,0,7.970863616012756,744,2
197-103F.png,135-103F.png,ds,inv,197-103F_mask.png,0.6285774999996647,1,7.970863616012756,745,1
131-37F.png,131-37F.png,ss,inv,131-37F_mask.png,0.7952440999943065,1,7.970863616012756,746,2
96-128F.png,13-225F.png,dd,inv,96-128F_mask.png,0.842411000005086,1,7.970863616012756,747,1
146-7.png,146-7.png,ss,inv,146-7_mask.png,0.6566520999913337,1,7.970863616012756,748,1
192-220F.png,192-220F.png,ss,up,192-220F_mask.png,0.6053338999918196,1,7.970863616012756,749,1
87_eyes.png,87_eyes.png,isos,inv,87_eyes_mask.png,0.6528044000006048,1,23.646572368403795,750,1
38_eyes.png,9_eyes.png,isod,inv,38_eyes_mask.png,0.650586600007955,1,20.036520266739068,751,2
30_eyes.png,30_eyes.png,isos,inv,30_eyes_mask.png,1.0078510000021197,1,28.555068267735685,752,2
2-8.png,2-93.png,sd,up,2-8_mask.png,0.5748977000039304,1,28.555068267735685,753,1
147_eyes.png,147_eyes.png,isos,up,147_eyes_mask.png,0.6315336999978172,1,17.970863616012757,754,2
131-37F.png,129-37F.png,ds,inv,131-37F_mask.png,0.5572118000127375,1,17.970863616012757,755,2
197-192F.png,135-192F.png,ds,inv,197-192F_mask.png,0.7262687999900663,1,17.970863616012757,756,2
160-2.png,160-76.png,sd,inv,160-2_mask.png,0.9451307999988785,1,17.970863616012757,757,2
197-192F.png,135-192F.png,ds,up,197-192F_mask.png,0.6741838000016287,1,17.970863616012757,758,1
111-220F.png,192-216F.png,dd,inv,111-220F_mask.png,0.6792055999976583,1,17.970863616012757,759,2
147-25.png,147-7.png,sd,inv,147-25_mask.png,0.9618022000067867,1,17.970863616012757,760,2
41-20F.png,41-20F.png,ss,up,41-20F_mask.png,0.6031553000066197,1,17.970863616012757,761,2
46-93.png,46-8.png,sd,inv,46-93_mask.png,0.5627845999988494,1,17.970863616012757,762,1
139-135F.png,103-135F.png,ds,up,139-135F_mask.png,0.8362392999988515,0,17.970863616012757,763,2
13-128F.png,96-225F.png,dd,inv,13-128F_mask.png,1.4341112000111025,0,17.970863616012757,764,2
147-25.png,147-25.png,ss,up,147-25_mask.png,0.543827000001329,1,17.970863616012757,765,1
52-148.png,145-66.png,dd,up,52-148_mask.png,0.8977838999999221,0,17.970863616012757,766,2
17-38.png,17-9.png,sd,up,17-38_mask.png,1.1250982000055956,1,17.970863616012757,767,1
