im1name,im2name,cond,ori,mask,rt,acc,contrast,trialno,staircase
2_eyes.png,76_eyes.png,isod,up,2_eyes_mask.png,1.2770180999941658,1,14.736125994561542,0,1
76_eyes.png,2_eyes.png,isod,inv,76_eyes_mask.png,0.6331625000020722,0,14.736125994561542,1,2
225_eyes.png,128_eyes.png,isod,inv,225_eyes_mask.png,0.4456137000088347,1,14.736125994561542,2,1
7_eyes.png,7_eyes.png,isos,up,7_eyes_mask.png,0.6590820999990683,1,14.736125994561542,3,2
151-146.png,151-87.png,sd,inv,151-146_mask.png,0.543577299991739,1,14.736125994561542,4,1
128-96F.png,225-96F.png,ds,inv,128-96F_mask.png,0.792980299986084,1,14.736125994561542,5,2
208-13F.png,208-13F.png,ss,up,208-13F_mask.png,0.5362986000109231,1,14.736125994561542,6,2
76_eyes.png,76_eyes.png,isos,up,76_eyes_mask.png,0.3947594999917783,1,13.646572368403794,7,1
208-13F.png,20-13F.png,ds,up,208-13F_mask.png,1.0664328999991994,1,13.646572368403794,8,2
151-146.png,151-146.png,ss,inv,151-146_mask.png,0.6150934000033885,1,13.646572368403794,9,2
44-100.png,44-100.png,ss,inv,44-100_mask.png,0.4777856000000611,1,13.646572368403794,10,1
147-7.png,147-7.png,ss,inv,147-7_mask.png,1.201650899995002,0,13.646572368403794,11,2
44-100.png,123-125.png,dd,up,44-100_mask.png,1.21698369999649,0,13.646572368403794,12,2
131-94F.png,131-94F.png,ss,up,131-94F_mask.png,0.41538869999931194,1,13.646572368403794,13,2
49-146.png,151-87.png,dd,inv,49-146_mask.png,0.5254343999986304,0,13.646572368403794,14,1
160-76.png,24-76.png,ds,inv,160-76_mask.png,0.5113226999965264,1,13.646572368403794,15,1
197_eyes.png,135_eyes.png,isod,up,197_eyes_mask.png,0.6745809999993071,1,12.637577710370472,16,1
20-13F.png,20-65F.png,sd,up,20-13F_mask.png,0.7023890999989817,1,12.637577710370472,17,1
76_eyes.png,76_eyes.png,isos,inv,76_eyes_mask.png,0.3940625999966869,1,13.646572368403794,18,1
103-135F.png,139-135F.png,ds,up,103-135F_mask.png,1.4733829999895534,0,13.646572368403794,19,1
129-94F.png,131-94F.png,ds,up,129-94F_mask.png,0.6858337000012398,1,13.646572368403794,20,1
103-135F.png,103-135F.png,ss,inv,103-135F_mask.png,0.9298027000040747,1,13.646572368403794,21,1
103-135F.png,103-135F.png,ss,up,103-135F_mask.png,1.5720466999919154,1,13.646572368403794,22,1
94_eyes.png,37_eyes.png,isod,inv,94_eyes_mask.png,0.6600711999926716,1,12.637577710370472,23,1
139-135F.png,139-197F.png,sd,inv,139-135F_mask.png,0.6967162999935681,0,12.637577710370472,24,1
129-37F.png,131-37F.png,ds,up,129-37F_mask.png,0.852071800007252,1,12.637577710370472,25,2
208-13F.png,208-65F.png,sd,up,208-13F_mask.png,0.6333831000083592,1,12.637577710370472,26,2
208-13F.png,208-65F.png,sd,inv,208-13F_mask.png,1.423401299995021,1,12.637577710370472,27,2
20_eyes.png,208_eyes.png,isod,up,20_eyes_mask.png,0.5815928000083659,0,13.646572368403794,28,2
20-65F.png,208-13F.png,dd,up,20-65F_mask.png,1.2213813999987906,0,13.646572368403794,29,1
192-216F.png,111-216F.png,ds,inv,192-216F_mask.png,0.6678001999971457,1,13.646572368403794,30,2
7-147.png,7-147.png,ss,up,7-147_mask.png,0.5840885000070557,1,13.646572368403794,31,1
128_eyes.png,128_eyes.png,isos,inv,128_eyes_mask.png,0.8642252999998163,0,18.555068267735685,32,2
129-37F.png,131-37F.png,ds,inv,129-37F_mask.png,0.5571238000120502,1,18.555068267735685,33,1
30_eyes.png,30_eyes.png,isos,up,30_eyes_mask.png,1.0538459999952465,0,10.837880352311993,34,1
125_eyes.png,125_eyes.png,isos,inv,125_eyes_mask.png,0.6509131999919191,1,21.636252618780404,35,2
96_eyes.png,96_eyes.png,isos,inv,96_eyes_mask.png,0.8157824999943841,0,10.837880352311993,36,1
123-125.png,123-100.png,sd,up,123-125_mask.png,0.7339096000068821,0,10.837880352311993,37,1
220_eyes.png,216_eyes.png,isod,inv,220_eyes_mask.png,0.607568799998262,1,21.636252618780404,38,2
65-20F.png,41-208F.png,dd,inv,65-20F_mask.png,0.9821216999989701,1,21.636252618780404,39,1
128-96F.png,225-30F.png,dd,inv,128-96F_mask.png,1.6142558999999892,1,21.636252618780404,40,2
25-55.png,25-147.png,sd,inv,25-55_mask.png,0.5488626000005752,1,21.636252618780404,41,2
225-96F.png,128-30F.png,dd,inv,225-96F_mask.png,0.5658125999907497,0,21.636252618780404,42,2
103_eyes.png,192_eyes.png,isod,up,103_eyes_mask.png,0.6141782000049716,1,17.183151257649243,43,2
125_eyes.png,125_eyes.png,isos,up,125_eyes_mask.png,0.546807800012175,1,17.183151257649243,44,2
2-8.png,46-93.png,dd,up,2-8_mask.png,0.5078231999941636,1,17.183151257649243,45,1
49-146.png,49-87.png,sd,up,49-146_mask.png,0.7348287000058917,1,17.183151257649243,46,2
103-135F.png,139-197F.png,dd,up,103-135F_mask.png,0.6008025999908568,1,17.183151257649243,47,2
197-103F.png,197-192F.png,sd,inv,197-103F_mask.png,0.995933000012883,0,17.183151257649243,48,2
151-87.png,49-146.png,dd,inv,151-87_mask.png,1.1311667999980273,1,17.183151257649243,49,1
147_eyes.png,147_eyes.png,isos,up,147_eyes_mask.png,0.941485899995314,1,15.9126704834961,50,1
197-192F.png,135-103F.png,dd,inv,197-192F_mask.png,0.6865983000025153,1,15.9126704834961,51,2
41-208F.png,41-20F.png,sd,up,41-208F_mask.png,0.7542363000102341,1,15.9126704834961,52,2
129-37F.png,129-37F.png,ss,inv,129-37F_mask.png,0.7556024999939837,1,15.9126704834961,53,2
208-65F.png,20-13F.png,dd,inv,208-65F_mask.png,0.7010306000011042,1,15.9126704834961,54,2
146-25.png,146-25.png,ss,up,146-25_mask.png,1.1918606999970507,0,15.9126704834961,55,2
20_eyes.png,208_eyes.png,isod,inv,20_eyes_mask.png,0.8800277999980608,1,15.9126704834961,56,1
147-25.png,146-7.png,dd,up,147-25_mask.png,1.2834520999895176,0,15.9126704834961,57,2
8_eyes.png,93_eyes.png,isod,inv,8_eyes_mask.png,0.7115060999931302,1,20.036520266739068,58,2
146_eyes.png,146_eyes.png,isos,up,146_eyes_mask.png,0.746194799998193,1,17.183151257649243,59,2
24-2.png,24-76.png,sd,up,24-2_mask.png,0.6035810000030324,0,17.183151257649243,60,1
197_eyes.png,197_eyes.png,isos,inv,197_eyes_mask.png,1.0670462999987649,1,14.736125994561542,61,1
7_eyes.png,25_eyes.png,isod,up,7_eyes_mask.png,0.5761504999973113,1,15.9126704834961,62,2
49-87.png,49-87.png,ss,inv,49-87_mask.png,0.656333100007032,1,15.9126704834961,63,1
2-8.png,2-93.png,sd,up,2-8_mask.png,0.5255168000003323,1,15.9126704834961,64,1
2_eyes.png,2_eyes.png,isos,inv,2_eyes_mask.png,0.6803310999966925,1,14.736125994561542,65,1
146_eyes.png,87_eyes.png,isod,up,146_eyes_mask.png,0.5408098000043537,1,14.736125994561542,66,2
160-2.png,160-2.png,ss,up,160-2_mask.png,0.6385098000027938,1,14.736125994561542,67,1
225-30F.png,128-30F.png,ds,inv,225-30F_mask.png,0.6841695999901276,1,14.736125994561542,68,1
225-96F.png,128-96F.png,ds,up,225-96F_mask.png,1.1842612000036752,0,14.736125994561542,69,2
41-208F.png,65-208F.png,ds,inv,41-208F_mask.png,1.0883739999990212,0,14.736125994561542,70,2
151-87.png,49-146.png,dd,up,151-87_mask.png,0.8203962999978103,1,14.736125994561542,71,1
208_eyes.png,208_eyes.png,isos,up,208_eyes_mask.png,1.4189959000068484,0,23.646572368403795,72,2
103-197F.png,103-197F.png,ss,up,103-197F_mask.png,0.6645512000104645,1,23.646572368403795,73,2
13_eyes.png,65_eyes.png,isod,inv,13_eyes_mask.png,0.709666599999764,1,23.646572368403795,74,1
148_eyes.png,148_eyes.png,isos,inv,148_eyes_mask.png,0.6082229000021471,1,20.036520266739068,75,2
103-197F.png,103-197F.png,ss,inv,103-197F_mask.png,0.6711639000131981,1,20.036520266739068,76,2
30_eyes.png,96_eyes.png,isod,up,30_eyes_mask.png,0.6362608000054024,0,14.736125994561542,77,1
96-128F.png,96-225F.png,sd,inv,96-128F_mask.png,0.7218686999985948,1,14.736125994561542,78,1
87_eyes.png,146_eyes.png,isod,up,87_eyes_mask.png,0.7325457999977516,1,17.183151257649243,79,1
128-96F.png,128-96F.png,ss,inv,128-96F_mask.png,0.7347644000110449,1,17.183151257649243,80,1
49-146.png,49-146.png,ss,up,49-146_mask.png,0.6326060999999754,1,17.183151257649243,81,1
9_eyes.png,9_eyes.png,isos,up,9_eyes_mask.png,0.8383562000090024,0,27.183151257649243,82,1
147-25.png,147-7.png,sd,up,147-25_mask.png,0.6280231999990065,1,27.183151257649243,83,2
225-30F.png,128-30F.png,ds,up,225-30F_mask.png,0.6022431000019424,1,27.183151257649243,84,1
20-13F.png,208-13F.png,ds,up,20-13F_mask.png,0.7054678999993484,1,27.183151257649243,85,1
147-7.png,146-25.png,dd,up,147-7_mask.png,0.8289555999945151,1,27.183151257649243,86,2
103-135F.png,139-135F.png,ds,inv,103-135F_mask.png,0.6993519000097876,1,27.183151257649243,87,1
44-100.png,123-100.png,ds,up,44-100_mask.png,0.5746522999979788,1,27.183151257649243,88,2
52-148.png,52-66.png,sd,inv,52-148_mask.png,0.7986793000018224,1,27.183151257649243,89,1
65-20F.png,65-208F.png,sd,inv,65-20F_mask.png,0.7579646999947727,1,27.183151257649243,90,2
37_eyes.png,37_eyes.png,isos,inv,37_eyes_mask.png,0.758873599988874,1,20.036520266739068,91,2
49-87.png,151-87.png,ds,inv,49-87_mask.png,0.8959636000072351,1,20.036520266739068,92,2
148_eyes.png,66_eyes.png,isod,inv,148_eyes_mask.png,0.7718820000009146,1,30.036520266739068,93,2
111-216F.png,192-220F.png,dd,up,111-216F_mask.png,0.6363143999915337,1,30.036520266739068,94,1
103-197F.png,139-135F.png,dd,inv,103-197F_mask.png,0.7221702999959234,0,30.036520266739068,95,1
87_eyes.png,87_eyes.png,isos,up,87_eyes_mask.png,0.8571767999965232,1,13.646572368403794,96,2
96-225F.png,13-128F.png,dd,up,96-225F_mask.png,0.4856669000000693,1,13.646572368403794,97,2
160-2.png,160-76.png,sd,up,160-2_mask.png,0.5455502000113484,1,13.646572368403794,98,1
125_eyes.png,100_eyes.png,isod,up,125_eyes_mask.png,0.5236545999941882,1,12.637577710370472,99,2
135-103F.png,135-192F.png,sd,inv,135-103F_mask.png,0.46971489999850746,0,12.637577710370472,100,1
192_eyes.png,192_eyes.png,isos,inv,192_eyes_mask.png,0.5141835000104038,1,13.646572368403794,101,1
225-96F.png,225-30F.png,sd,up,225-96F_mask.png,0.6613666999910492,0,13.646572368403794,102,2
128_eyes.png,225_eyes.png,isod,inv,128_eyes_mask.png,0.9306992999918293,0,20.036520266739068,103,2
129-37F.png,131-94F.png,dd,inv,129-37F_mask.png,0.6210241000080714,1,20.036520266739068,104,2
13_eyes.png,13_eyes.png,isos,up,13_eyes_mask.png,0.8759040000004461,1,17.183151257649243,105,1
208-65F.png,20-65F.png,ds,inv,208-65F_mask.png,0.7203211000014562,1,17.183151257649243,106,1
192-220F.png,111-220F.png,ds,up,192-220F_mask.png,0.7945787999924505,1,17.183151257649243,107,1
44-100.png,44-100.png,ss,up,44-100_mask.png,0.8342208999965806,1,17.183151257649243,108,2
139-197F.png,139-197F.png,ss,up,139-197F_mask.png,0.5998976999981096,1,17.183151257649243,109,2
25-55.png,7-55.png,ds,up,25-55_mask.png,0.9753893000015523,1,17.183151257649243,110,2
87_eyes.png,87_eyes.png,isos,up,87_eyes_mask.png,0.8239321000000928,1,17.183151257649243,111,1
147_eyes.png,55_eyes.png,isod,inv,147_eyes_mask.png,0.5983746999991126,1,12.637577710370472,112,1
216_eyes.png,216_eyes.png,isos,up,216_eyes_mask.png,0.7421135000040522,0,11.703185684592045,113,2
55_eyes.png,147_eyes.png,isod,up,55_eyes_mask.png,0.7422340999910375,1,15.9126704834961,114,2
146-7.png,146-25.png,sd,inv,146-7_mask.png,1.1355675000086194,0,15.9126704834961,115,2
146_eyes.png,87_eyes.png,isod,inv,146_eyes_mask.png,1.3139044999988982,0,21.636252618780404,116,2
123-100.png,44-100.png,ds,up,123-100_mask.png,1.0446090000041295,1,21.636252618780404,117,1
131-37F.png,131-37F.png,ss,inv,131-37F_mask.png,0.6981315000011818,1,21.636252618780404,118,1
147-25.png,147-25.png,ss,up,147-25_mask.png,0.7181209999980638,1,21.636252618780404,119,1
128-30F.png,225-30F.png,ds,inv,128-30F_mask.png,1.2807585000118706,1,21.636252618780404,120,2
20-65F.png,20-13F.png,sd,inv,20-65F_mask.png,1.0450678000051994,1,21.636252618780404,121,1
225_eyes.png,128_eyes.png,isod,up,225_eyes_mask.png,1.0509208999865223,1,15.9126704834961,122,1
13-225F.png,96-225F.png,ds,inv,13-225F_mask.png,0.7440264000033494,1,15.9126704834961,123,2
96-225F.png,13-128F.png,dd,inv,96-225F_mask.png,0.6495587000099476,1,15.9126704834961,124,1
160-76.png,160-2.png,sd,up,160-76_mask.png,0.7430037000012817,1,15.9126704834961,125,1
146-7.png,147-25.png,dd,inv,146-7_mask.png,0.6966378000070108,1,15.9126704834961,126,2
24-2.png,160-2.png,ds,inv,24-2_mask.png,0.6843911999894772,0,15.9126704834961,127,1
125-9.png,125-38.png,sd,up,125-9_mask.png,0.8639085000031628,0,15.9126704834961,128,2
25_eyes.png,25_eyes.png,isos,inv,25_eyes_mask.png,0.8130226000066614,1,23.36370892508618,129,2
125-9.png,125-9.png,ss,inv,125-9_mask.png,0.979856199992355,1,23.36370892508618,130,1
192_eyes.png,103_eyes.png,isod,up,192_eyes_mask.png,0.6207041000016034,1,15.9126704834961,131,1
123-125.png,123-125.png,ss,inv,123-125_mask.png,0.7873241999914171,1,15.9126704834961,132,2
13-225F.png,96-128F.png,dd,up,13-225F_mask.png,0.7632768000039505,1,15.9126704834961,133,2
225-30F.png,225-96F.png,sd,inv,225-30F_mask.png,0.9641707999981008,0,15.9126704834961,134,2
197-103F.png,197-103F.png,ss,inv,197-103F_mask.png,0.8132804999913787,1,15.9126704834961,135,2
145-66.png,52-148.png,dd,inv,145-66_mask.png,0.6915600000065751,1,15.9126704834961,136,1
49-87.png,151-146.png,dd,up,49-87_mask.png,0.8392357999982778,1,15.9126704834961,137,1
2-8.png,2-8.png,ss,up,2-8_mask.png,0.6052565999998478,1,15.9126704834961,138,1
38_eyes.png,9_eyes.png,isod,inv,38_eyes_mask.png,0.6282931999885477,0,11.703185684592045,139,1
135_eyes.png,135_eyes.png,isos,inv,135_eyes_mask.png,0.608418799994979,1,21.636252618780404,140,2
66_eyes.png,66_eyes.png,isos,inv,66_eyes_mask.png,0.9582438999932492,1,14.736125994561542,141,1
131-94F.png,129-37F.png,dd,up,131-94F_mask.png,0.9509255000011763,1,14.736125994561542,142,1
160-2.png,24-2.png,ds,up,160-2_mask.png,0.6159348999935901,1,14.736125994561542,143,2
160-2.png,24-76.png,dd,inv,160-2_mask.png,0.6687238000013167,1,14.736125994561542,144,1
123-125.png,44-125.png,ds,inv,123-125_mask.png,0.8332393000018783,1,14.736125994561542,145,1
146-7.png,147-7.png,ds,inv,146-7_mask.png,0.8232353000057628,0,14.736125994561542,146,2
139-197F.png,139-135F.png,sd,inv,139-197F_mask.png,0.686019499989925,0,14.736125994561542,147,1
145-66.png,52-148.png,dd,up,145-66_mask.png,0.7778940999996848,0,14.736125994561542,148,1
2_eyes.png,76_eyes.png,isod,inv,2_eyes_mask.png,0.6347211000102106,0,13.646572368403794,149,1
111-220F.png,192-216F.png,dd,up,111-220F_mask.png,0.5283315999986371,1,13.646572368403794,150,2
24-76.png,160-76.png,ds,up,24-76_mask.png,0.7222440000041388,1,13.646572368403794,151,1
128-96F.png,128-30F.png,sd,up,128-96F_mask.png,0.9169144999905257,0,13.646572368403794,152,2
192_eyes.png,192_eyes.png,isos,inv,192_eyes_mask.png,0.8798299000045517,0,21.636252618780404,153,2
37_eyes.png,37_eyes.png,isos,inv,37_eyes_mask.png,0.8669435000047088,1,15.9126704834961,154,1
129-37F.png,129-37F.png,ss,up,129-37F_mask.png,0.807589599993662,1,15.9126704834961,155,2
2-93.png,46-93.png,ds,up,2-93_mask.png,1.1019355000025826,1,15.9126704834961,156,2
9_eyes.png,38_eyes.png,isod,up,9_eyes_mask.png,0.5933082000119612,1,14.736125994561542,157,2
220_eyes.png,216_eyes.png,isod,up,220_eyes_mask.png,0.6010298000037437,1,14.736125994561542,158,1
7-55.png,7-55.png,ss,inv,7-55_mask.png,0.7198930000013206,1,14.736125994561542,159,1
160-2.png,24-2.png,ds,inv,160-2_mask.png,0.5227836999983992,1,14.736125994561542,160,2
7-55.png,7-147.png,sd,up,7-55_mask.png,0.541377299989108,1,14.736125994561542,161,2
146-7.png,147-7.png,ds,up,146-7_mask.png,0.6629358999925898,0,14.736125994561542,162,2
25-55.png,7-55.png,ds,inv,25-55_mask.png,0.5159092999965651,1,14.736125994561542,163,1
66_eyes.png,66_eyes.png,isos,up,66_eyes_mask.png,0.6150707000051625,1,14.736125994561542,164,2
46-8.png,46-8.png,ss,up,46-8_mask.png,0.74126919999253,1,14.736125994561542,165,1
125-38.png,125-38.png,ss,inv,125-38_mask.png,0.5104758000088623,1,14.736125994561542,166,2
76_eyes.png,76_eyes.png,isos,up,76_eyes_mask.png,0.49764849999337457,1,14.736125994561542,167,1
44-100.png,123-125.png,dd,inv,44-100_mask.png,0.573255799987237,1,14.736125994561542,168,2
192-220F.png,111-216F.png,dd,inv,192-220F_mask.png,0.8299909999914235,1,14.736125994561542,169,1
9_eyes.png,9_eyes.png,isos,up,9_eyes_mask.png,0.5243760000012117,1,13.646572368403794,170,2
41-20F.png,65-208F.png,dd,up,41-20F_mask.png,0.590249800006859,1,13.646572368403794,171,2
25-55.png,25-55.png,ss,up,25-55_mask.png,0.5258449999964796,1,13.646572368403794,172,2
94_eyes.png,37_eyes.png,isod,up,94_eyes_mask.png,0.8486360999959288,1,23.646572368403795,173,2
192-216F.png,192-220F.png,sd,up,192-216F_mask.png,0.5420354999951087,1,23.646572368403795,174,1
128-30F.png,225-96F.png,dd,up,128-30F_mask.png,0.6317048000055365,1,23.646572368403795,175,1
7-147.png,25-55.png,dd,inv,7-147_mask.png,0.8377477999893017,1,23.646572368403795,176,2
93_eyes.png,8_eyes.png,isod,inv,93_eyes_mask.png,0.7475072999950498,1,15.9126704834961,177,1
52-66.png,52-148.png,sd,inv,52-66_mask.png,0.6929634999978589,0,15.9126704834961,178,1
220_eyes.png,220_eyes.png,isos,inv,220_eyes_mask.png,0.5768758000049274,1,24.73612599456154,179,1
52-66.png,52-66.png,ss,inv,52-66_mask.png,0.4971263000043109,1,24.73612599456154,180,2
13-225F.png,13-128F.png,sd,up,13-225F_mask.png,0.6207637000043178,1,24.73612599456154,181,1
146-25.png,147-25.png,ds,up,146-25_mask.png,0.7313482000026852,0,24.73612599456154,182,1
17-38.png,17-38.png,ss,inv,17-38_mask.png,0.7969196999911219,1,24.73612599456154,183,1
192-216F.png,192-220F.png,sd,inv,192-216F_mask.png,0.5086477000004379,1,24.73612599456154,184,2
93_eyes.png,93_eyes.png,isos,up,93_eyes_mask.png,0.8075329999992391,1,13.646572368403794,185,1
7_eyes.png,25_eyes.png,isod,up,7_eyes_mask.png,0.5819224000006216,1,22.637577710370472,186,1
147_eyes.png,55_eyes.png,isod,inv,147_eyes_mask.png,0.7425214000104461,1,23.36370892508618,187,2
87_eyes.png,87_eyes.png,isos,inv,87_eyes_mask.png,0.5345118000113871,1,23.36370892508618,188,2
25-147.png,25-147.png,ss,up,25-147_mask.png,0.7763817999948515,1,23.36370892508618,189,1
145-66.png,145-148.png,sd,inv,145-66_mask.png,0.9525437999982387,1,23.36370892508618,190,2
216_eyes.png,220_eyes.png,isod,inv,216_eyes_mask.png,0.5224908000091091,1,33.36370892508618,191,2
111-220F.png,111-216F.png,sd,up,111-220F_mask.png,0.4713466000102926,1,33.36370892508618,192,1
13-128F.png,13-225F.png,sd,up,13-128F_mask.png,0.4994794000085676,1,33.36370892508618,193,1
66_eyes.png,148_eyes.png,isod,up,66_eyes_mask.png,0.8393968000018504,1,12.637577710370472,194,1
38_eyes.png,9_eyes.png,isod,up,38_eyes_mask.png,1.2205265000084182,1,12.637577710370472,195,1
20-13F.png,208-65F.png,dd,inv,20-13F_mask.png,1.5953185000107624,0,12.637577710370472,196,2
123-100.png,44-125.png,dd,up,123-100_mask.png,0.586872100000619,1,12.637577710370472,197,2
225-30F.png,128-96F.png,dd,inv,225-30F_mask.png,0.6750393999973312,1,12.637577710370472,198,1
13-128F.png,13-128F.png,ss,inv,13-128F_mask.png,0.7672902000049362,1,12.637577710370472,199,2
52-148.png,145-148.png,ds,inv,52-148_mask.png,0.48801679999451153,1,12.637577710370472,200,1
125-9.png,125-38.png,sd,inv,125-9_mask.png,0.5322524999937741,1,12.637577710370472,201,2
103_eyes.png,103_eyes.png,isos,up,103_eyes_mask.png,0.798222600002191,1,11.703185684592045,202,1
17-9.png,125-9.png,ds,inv,17-9_mask.png,0.6614727999985917,1,11.703185684592045,203,2
135-192F.png,135-103F.png,sd,up,135-192F_mask.png,0.5141737999947509,1,11.703185684592045,204,2
100_eyes.png,125_eyes.png,isod,up,100_eyes_mask.png,0.7330106999870623,1,13.646572368403794,205,2
135-192F.png,197-103F.png,dd,up,135-192F_mask.png,0.8548994000011589,0,13.646572368403794,206,1
2-93.png,2-8.png,sd,up,2-93_mask.png,0.7163169999985257,1,13.646572368403794,207,2
197-103F.png,135-192F.png,dd,inv,197-103F_mask.png,0.8389624999981606,0,13.646572368403794,208,1
65_eyes.png,65_eyes.png,isos,inv,65_eyes_mask.png,1.116974399992614,1,14.736125994561542,209,1
20_eyes.png,208_eyes.png,isod,inv,20_eyes_mask.png,0.6718716000032146,1,14.736125994561542,210,1
65-208F.png,65-208F.png,ss,up,65-208F_mask.png,0.6361544999963371,1,14.736125994561542,211,1
7-55.png,25-55.png,ds,up,7-55_mask.png,0.6502601000102004,1,14.736125994561542,212,1
25_eyes.png,25_eyes.png,isos,up,25_eyes_mask.png,0.9438604000024498,1,10.837880352311993,213,1
225-30F.png,225-30F.png,ss,inv,225-30F_mask.png,0.6895604000019375,0,10.837880352311993,214,1
123-125.png,44-100.png,dd,up,123-125_mask.png,0.7252840000001015,1,10.837880352311993,215,2
94_eyes.png,37_eyes.png,isod,inv,94_eyes_mask.png,0.8638875000033295,1,23.36370892508618,216,2
111-216F.png,111-216F.png,ss,inv,111-216F_mask.png,0.7968622000043979,1,23.36370892508618,217,1
41-20F.png,65-20F.png,ds,inv,41-20F_mask.png,0.6605771000031382,0,23.36370892508618,218,1
197_eyes.png,197_eyes.png,isos,up,197_eyes_mask.png,1.5857046000019182,0,12.637577710370472,219,2
17-38.png,125-9.png,dd,inv,17-38_mask.png,0.6255125000025146,1,12.637577710370472,220,2
100_eyes.png,125_eyes.png,isod,inv,100_eyes_mask.png,1.024419300010777,1,14.736125994561542,221,1
160-76.png,160-76.png,ss,up,160-76_mask.png,0.9106334999960382,1,14.736125994561542,222,1
7_eyes.png,25_eyes.png,isod,inv,7_eyes_mask.png,1.057821199996397,1,23.36370892508618,223,2
129-94F.png,129-37F.png,sd,inv,129-94F_mask.png,0.4464713999914238,0,23.36370892508618,224,1
197-103F.png,197-103F.png,ss,up,197-103F_mask.png,0.6121619000041392,1,23.36370892508618,225,2
208-65F.png,208-13F.png,sd,inv,208-65F_mask.png,0.7871060000034049,0,23.36370892508618,226,1
192-220F.png,111-220F.png,ds,inv,192-220F_mask.png,0.65123780000431,1,23.36370892508618,227,2
225-96F.png,225-96F.png,ss,up,225-96F_mask.png,0.7446584999997867,1,23.36370892508618,228,2
7-147.png,25-147.png,ds,up,7-147_mask.png,0.7381533000007039,1,23.36370892508618,229,1
103-197F.png,139-197F.png,ds,up,103-197F_mask.png,0.5081722000031732,1,23.36370892508618,230,2
17-9.png,125-9.png,ds,up,17-9_mask.png,0.7353445000044303,1,23.36370892508618,231,2
220_eyes.png,220_eyes.png,isos,inv,220_eyes_mask.png,0.7215197000041371,0,23.36370892508618,232,2
20-65F.png,20-65F.png,ss,inv,20-65F_mask.png,0.5482587000005879,1,23.36370892508618,233,2
93_eyes.png,8_eyes.png,isod,up,93_eyes_mask.png,0.6231473000079859,1,14.736125994561542,234,2
9_eyes.png,9_eyes.png,isos,inv,9_eyes_mask.png,0.8374524999962887,1,13.646572368403794,235,1
147_eyes.png,147_eyes.png,isos,inv,147_eyes_mask.png,0.8972667000052752,1,23.36370892508618,236,2
37_eyes.png,37_eyes.png,isos,up,37_eyes_mask.png,0.7651745000039227,1,14.736125994561542,237,2
7-55.png,25-147.png,dd,up,7-55_mask.png,0.8457017000037013,1,14.736125994561542,238,1
7-147.png,7-55.png,sd,inv,7-147_mask.png,0.8593734000023687,1,14.736125994561542,239,2
131-37F.png,131-94F.png,sd,up,131-37F_mask.png,0.5955923000001349,1,14.736125994561542,240,2
87_eyes.png,87_eyes.png,isos,inv,87_eyes_mask.png,0.44344570000248495,1,13.646572368403794,241,1
17-9.png,17-9.png,ss,up,17-9_mask.png,0.3931938000023365,1,13.646572368403794,242,2
13_eyes.png,65_eyes.png,isod,up,13_eyes_mask.png,0.4891302000032738,1,14.736125994561542,243,2
123-100.png,123-125.png,sd,inv,123-100_mask.png,0.6612413999973796,1,14.736125994561542,244,2
197_eyes.png,135_eyes.png,isod,up,197_eyes_mask.png,0.5144658000062918,1,13.646572368403794,245,2
46-8.png,46-93.png,sd,up,46-8_mask.png,0.4855640999885509,1,13.646572368403794,246,2
131-94F.png,131-37F.png,sd,up,131-94F_mask.png,0.6735163999983342,1,13.646572368403794,247,1
66_eyes.png,66_eyes.png,isos,inv,66_eyes_mask.png,0.5582657000049949,1,23.36370892508618,248,2
9_eyes.png,38_eyes.png,isod,up,9_eyes_mask.png,0.5274423999944702,1,10.036553609986138,249,1
8_eyes.png,8_eyes.png,isos,up,8_eyes_mask.png,0.6799265000008745,1,13.646572368403794,250,2
49-87.png,151-146.png,dd,inv,49-87_mask.png,0.5642527000018163,1,13.646572368403794,251,1
111-220F.png,192-220F.png,ds,inv,111-220F_mask.png,1.3492143000039505,1,13.646572368403794,252,2
103_eyes.png,103_eyes.png,isos,up,103_eyes_mask.png,1.030586900000344,1,9.294475034930333,253,1
135_eyes.png,135_eyes.png,isos,up,135_eyes_mask.png,0.5562346999940928,1,22.637577710370472,254,2
208-65F.png,20-65F.png,ds,up,208-65F_mask.png,0.6534523000009358,1,22.637577710370472,255,1
131-37F.png,131-37F.png,ss,up,131-37F_mask.png,0.682790600010776,1,22.637577710370472,256,1
20-65F.png,208-65F.png,ds,inv,20-65F_mask.png,0.6547462000016822,1,22.637577710370472,257,2
25_eyes.png,7_eyes.png,isod,inv,25_eyes_mask.png,0.6125613999902271,1,23.36370892508618,258,2
131-94F.png,129-37F.png,dd,inv,131-94F_mask.png,0.699580500004231,1,23.36370892508618,259,2
208-13F.png,208-13F.png,ss,inv,208-13F_mask.png,0.6548153000039747,1,23.36370892508618,260,2
7_eyes.png,7_eyes.png,isos,up,7_eyes_mask.png,0.7005392999999458,0,8.607263960508302,261,1
13_eyes.png,13_eyes.png,isos,inv,13_eyes_mask.png,1.1201298999949358,0,23.36370892508618,262,2
208-65F.png,208-65F.png,ss,up,208-65F_mask.png,0.7470119000063278,1,23.36370892508618,263,2
44-125.png,44-125.png,ss,inv,44-125_mask.png,0.5959637000050861,1,23.36370892508618,264,1
13-128F.png,13-225F.png,sd,inv,13-128F_mask.png,0.5074242000118829,1,23.36370892508618,265,1
93_eyes.png,93_eyes.png,isos,inv,93_eyes_mask.png,0.6788145000027725,1,13.646572368403794,266,1
65-208F.png,41-20F.png,dd,inv,65-208F_mask.png,0.9071611999970628,0,13.646572368403794,267,2
52-66.png,145-66.png,ds,up,52-66_mask.png,0.7581624000013107,1,13.646572368403794,268,2
55_eyes.png,147_eyes.png,isod,up,55_eyes_mask.png,0.7111471999960486,1,21.703185684592043,269,1
44-125.png,123-100.png,dd,inv,44-125_mask.png,0.6341346999979578,0,21.703185684592043,270,1
46-8.png,2-8.png,ds,inv,46-8_mask.png,0.5043280000099912,1,21.703185684592043,271,1
139-135F.png,103-197F.png,dd,up,139-135F_mask.png,0.5555920999904629,1,21.703185684592043,272,2
93_eyes.png,8_eyes.png,isod,inv,93_eyes_mask.png,0.9813599000044633,0,12.637577710370472,273,1
125_eyes.png,100_eyes.png,isod,inv,125_eyes_mask.png,0.5486202000029152,1,24.73612599456154,274,1
52-148.png,145-148.png,ds,up,52-148_mask.png,0.7656857000110904,1,24.73612599456154,275,2
147-25.png,147-25.png,ss,inv,147-25_mask.png,0.5103965000016615,1,24.73612599456154,276,2
125-9.png,17-9.png,ds,up,125-9_mask.png,0.7059825000033015,0,24.73612599456154,277,1
17-9.png,17-38.png,sd,inv,17-9_mask.png,0.5889647000003606,0,24.73612599456154,278,1
17-9.png,17-38.png,sd,up,17-9_mask.png,0.7567543999903137,0,24.73612599456154,279,1
197-192F.png,135-103F.png,dd,up,197-192F_mask.png,0.5261612000031164,1,24.73612599456154,280,1
30_eyes.png,96_eyes.png,isod,inv,30_eyes_mask.png,0.6327831999951741,1,33.36370892508618,281,2
7-147.png,7-147.png,ss,inv,7-147_mask.png,0.5107749000017066,1,33.36370892508618,282,1
135-192F.png,135-103F.png,sd,inv,135-192F_mask.png,0.8499079000030179,0,33.36370892508618,283,2
192-220F.png,192-220F.png,ss,up,192-220F_mask.png,0.47911220000241883,1,33.36370892508618,284,1
44-125.png,123-125.png,ds,inv,44-125_mask.png,0.6036200999951689,1,33.36370892508618,285,1
46-93.png,2-8.png,dd,up,46-93_mask.png,0.5304565999977058,1,33.36370892508618,286,2
41-208F.png,65-20F.png,dd,up,41-208F_mask.png,1.0929737999977078,1,33.36370892508618,287,1
160-76.png,24-2.png,dd,inv,160-76_mask.png,0.7016274999914458,1,33.36370892508618,288,1
9_eyes.png,38_eyes.png,isod,inv,9_eyes_mask.png,0.5371656000061193,1,14.736125994561542,289,1
151-87.png,151-146.png,sd,up,151-87_mask.png,0.9868101999891223,1,14.736125994561542,290,1
225-96F.png,225-96F.png,ss,inv,225-96F_mask.png,0.7067427000001771,1,14.736125994561542,291,1
96-225F.png,13-225F.png,ds,inv,96-225F_mask.png,0.5818753000057768,0,14.736125994561542,292,1
146_eyes.png,146_eyes.png,isos,inv,146_eyes_mask.png,0.7020830999972532,1,13.646572368403794,293,1
49-146.png,49-146.png,ss,inv,49-146_mask.png,0.9775634000106947,1,13.646572368403794,294,2
135-103F.png,135-103F.png,ss,up,135-103F_mask.png,0.7378725000016857,1,13.646572368403794,295,1
24-2.png,160-76.png,dd,up,24-2_mask.png,0.8037863999925321,1,13.646572368403794,296,2
20_eyes.png,20_eyes.png,isos,inv,20_eyes_mask.png,0.5795242000021972,1,23.36370892508618,297,2
49-87.png,151-87.png,ds,up,49-87_mask.png,0.755787700007204,0,23.36370892508618,298,2
192_eyes.png,103_eyes.png,isod,inv,192_eyes_mask.png,0.7335066000086954,1,13.646572368403794,299,1
128_eyes.png,225_eyes.png,isod,up,128_eyes_mask.png,0.6799338999990141,1,12.637577710370472,300,2
131-94F.png,131-37F.png,sd,inv,131-94F_mask.png,0.7637904000002891,1,12.637577710370472,301,2
145-148.png,145-66.png,sd,inv,145-148_mask.png,0.6688760000106413,1,12.637577710370472,302,1
125_eyes.png,125_eyes.png,isos,up,125_eyes_mask.png,1.9457427000015741,0,11.703185684592045,303,1
46-93.png,2-93.png,ds,up,46-93_mask.png,0.5554917999979807,1,11.703185684592045,304,1
65_eyes.png,65_eyes.png,isos,inv,65_eyes_mask.png,0.5328837000124622,1,23.36370892508618,305,2
24-2.png,24-2.png,ss,inv,24-2_mask.png,1.0627321999927517,1,23.36370892508618,306,2
46-8.png,46-8.png,ss,inv,46-8_mask.png,0.5240347000071779,1,23.36370892508618,307,1
145-66.png,145-148.png,sd,up,145-66_mask.png,0.5421158999961335,1,23.36370892508618,308,1
103-197F.png,103-135F.png,sd,up,103-197F_mask.png,0.735775699999067,1,23.36370892508618,309,2
25_eyes.png,7_eyes.png,isod,up,25_eyes_mask.png,0.5461744999920484,1,13.646572368403794,310,1
46-8.png,46-93.png,sd,inv,46-8_mask.png,0.7397258999990299,0,13.646572368403794,311,1
76_eyes.png,2_eyes.png,isod,up,76_eyes_mask.png,0.6862145999912173,1,12.637577710370472,312,2
146-25.png,147-7.png,dd,inv,146-25_mask.png,0.658110399992438,1,12.637577710370472,313,1
96_eyes.png,30_eyes.png,isod,inv,96_eyes_mask.png,0.6716073000134202,1,23.36370892508618,314,2
128_eyes.png,128_eyes.png,isos,inv,128_eyes_mask.png,0.626105400006054,1,13.646572368403794,315,1
49-87.png,49-87.png,ss,up,49-87_mask.png,0.8964953999966383,1,13.646572368403794,316,2
125-9.png,17-38.png,dd,up,125-9_mask.png,0.8521053000004031,1,13.646572368403794,317,2
52-66.png,145-66.png,ds,inv,52-66_mask.png,1.321390800003428,1,13.646572368403794,318,2
111-220F.png,192-216F.png,dd,inv,111-220F_mask.png,0.6681047000020044,1,13.646572368403794,319,2
52-66.png,145-148.png,dd,up,52-66_mask.png,0.8727728000085335,1,13.646572368403794,320,1
30_eyes.png,30_eyes.png,isos,up,30_eyes_mask.png,0.6699604999885196,1,11.703185684592045,321,2
208_eyes.png,20_eyes.png,isod,inv,208_eyes_mask.png,0.5469293999922229,1,23.36370892508618,322,2
8_eyes.png,8_eyes.png,isos,up,8_eyes_mask.png,0.7407691999978852,1,11.703185684592045,323,2
225-30F.png,225-30F.png,ss,up,225-30F_mask.png,0.5744324999977835,0,11.703185684592045,324,1
146_eyes.png,146_eyes.png,isos,up,146_eyes_mask.png,0.711321399998269,1,12.637577710370472,325,1
131-37F.png,129-37F.png,ds,inv,131-37F_mask.png,1.122080700006336,1,12.637577710370472,326,1
123-125.png,44-125.png,ds,up,123-125_mask.png,0.7406216999952449,1,12.637577710370472,327,1
192-216F.png,111-220F.png,dd,up,192-216F_mask.png,1.2705026999901747,0,12.637577710370472,328,1
225-30F.png,225-96F.png,sd,up,225-30F_mask.png,0.8592327999940608,0,12.637577710370472,329,2
147_eyes.png,55_eyes.png,isod,up,147_eyes_mask.png,0.8244813999917824,1,12.637577710370472,330,1
13-128F.png,96-128F.png,ds,up,13-128F_mask.png,0.5989132999966387,1,12.637577710370472,331,2
192-216F.png,111-220F.png,dd,inv,192-216F_mask.png,0.7581842999934452,1,12.637577710370472,332,2
17-38.png,17-38.png,ss,up,17-38_mask.png,0.7752119999931892,1,12.637577710370472,333,2
139-197F.png,103-197F.png,ds,inv,139-197F_mask.png,0.5995060999994166,1,12.637577710370472,334,2
192-220F.png,192-216F.png,sd,inv,192-220F_mask.png,0.6868961000000127,1,12.637577710370472,335,2
139-197F.png,139-135F.png,sd,up,139-197F_mask.png,0.6481748000078369,1,12.637577710370472,336,1
52-148.png,52-148.png,ss,inv,52-148_mask.png,0.5258469999971567,1,12.637577710370472,337,1
160-76.png,24-76.png,ds,up,160-76_mask.png,0.43221070000436157,1,12.637577710370472,338,1
103-135F.png,103-197F.png,sd,up,103-135F_mask.png,0.4780395999987377,1,12.637577710370472,339,2
225_eyes.png,128_eyes.png,isod,up,225_eyes_mask.png,0.6264802999940002,1,12.637577710370472,340,1
17-9.png,17-9.png,ss,inv,17-9_mask.png,0.6248264000023482,1,12.637577710370472,341,2
52-66.png,145-148.png,dd,inv,52-66_mask.png,0.6951149999949848,1,12.637577710370472,342,1
7-147.png,25-55.png,dd,up,7-147_mask.png,0.6987784000084503,1,12.637577710370472,343,1
145-66.png,145-66.png,ss,up,145-66_mask.png,0.7820105999999214,1,12.637577710370472,344,1
65_eyes.png,13_eyes.png,isod,inv,65_eyes_mask.png,0.6785003999975743,1,13.646572368403794,345,1
20-65F.png,20-65F.png,ss,up,20-65F_mask.png,0.674807300005341,1,13.646572368403794,346,2
128-30F.png,128-96F.png,sd,inv,128-30F_mask.png,0.9590422999899602,1,13.646572368403794,347,1
225_eyes.png,225_eyes.png,isos,inv,225_eyes_mask.png,0.7366260000126204,0,12.637577710370472,348,1
151-146.png,49-87.png,dd,up,151-146_mask.png,0.9945365000021411,0,12.637577710370472,349,2
13_eyes.png,13_eyes.png,isos,inv,13_eyes_mask.png,0.5544365999958245,1,13.646572368403794,350,1
2-8.png,2-8.png,ss,inv,2-8_mask.png,0.6997685999958776,1,13.646572368403794,351,2
192_eyes.png,192_eyes.png,isos,up,192_eyes_mask.png,0.8475448999961372,1,10.837880352311993,352,2
123-100.png,123-125.png,sd,up,123-100_mask.png,0.6530683000019053,1,10.837880352311993,353,1
111-220F.png,192-220F.png,ds,up,111-220F_mask.png,0.6744375000125729,1,10.837880352311993,354,1
125-38.png,17-38.png,ds,inv,125-38_mask.png,0.7347079999890411,0,10.837880352311993,355,2
13-225F.png,13-128F.png,sd,inv,13-225F_mask.png,0.7928960999997798,1,10.837880352311993,356,2
128_eyes.png,225_eyes.png,isod,up,128_eyes_mask.png,0.6808330999920145,1,10.036553609986138,357,2
123-125.png,123-100.png,sd,inv,123-125_mask.png,0.9010727999993833,1,10.036553609986138,358,1
20-13F.png,208-13F.png,ds,inv,20-13F_mask.png,1.144430200001807,1,10.036553609986138,359,1
148_eyes.png,66_eyes.png,isod,inv,148_eyes_mask.png,0.6266979000065476,1,23.646572368403795,360,1
65_eyes.png,65_eyes.png,isos,up,65_eyes_mask.png,0.8248486999946181,0,11.703185684592045,361,1
139-135F.png,139-197F.png,sd,up,139-135F_mask.png,0.7431491000024835,1,11.703185684592045,362,2
208_eyes.png,20_eyes.png,isod,up,208_eyes_mask.png,0.5611634000088088,1,13.646572368403794,363,1
24-76.png,160-2.png,dd,inv,24-76_mask.png,0.745767500004149,1,13.646572368403794,364,2
38_eyes.png,9_eyes.png,isod,inv,38_eyes_mask.png,0.9159064999985276,1,23.36370892508618,365,2
129-94F.png,129-94F.png,ss,up,129-94F_mask.png,0.7264362999994773,1,23.36370892508618,366,1
94_eyes.png,94_eyes.png,isos,inv,94_eyes_mask.png,0.6652151999878697,1,23.36370892508618,367,2
38_eyes.png,38_eyes.png,isos,up,38_eyes_mask.png,0.7661302000051364,1,9.294475034930333,368,2
24-2.png,24-76.png,sd,inv,24-2_mask.png,1.2388445999968098,0,9.294475034930333,369,2
146-7.png,146-7.png,ss,inv,146-7_mask.png,1.8287388000026112,0,9.294475034930333,370,1
147-7.png,146-25.png,dd,inv,147-7_mask.png,0.715260600001784,1,9.294475034930333,371,2
20-65F.png,208-65F.png,ds,up,20-65F_mask.png,0.8297199000080582,1,9.294475034930333,372,2
123-125.png,123-125.png,ss,up,123-125_mask.png,0.6681954999949085,1,9.294475034930333,373,2
147-7.png,146-7.png,ds,inv,147-7_mask.png,0.9447251000092365,1,9.294475034930333,374,2
147-7.png,146-7.png,ds,up,147-7_mask.png,0.8666914000059478,1,9.294475034930333,375,2
25-147.png,7-55.png,dd,inv,25-147_mask.png,1.039256000003661,1,9.294475034930333,376,1
146-25.png,147-7.png,dd,up,146-25_mask.png,0.7331680000061169,0,9.294475034930333,377,2
20_eyes.png,208_eyes.png,isod,up,20_eyes_mask.png,0.8793073999986518,0,18.607263960508302,378,2
197_eyes.png,197_eyes.png,isos,up,197_eyes_mask.png,1.3638235999969766,0,22.637577710370472,379,1
96-128F.png,13-225F.png,dd,up,96-128F_mask.png,0.7968075000098906,1,22.637577710370472,380,1
37_eyes.png,94_eyes.png,isod,inv,37_eyes_mask.png,0.6047664000070654,0,23.36370892508618,381,2
25-147.png,7-147.png,ds,inv,25-147_mask.png,0.684096100012539,1,23.36370892508618,382,1
38_eyes.png,38_eyes.png,isos,inv,38_eyes_mask.png,0.5844441999943228,0,33.36370892508618,383,2
128-30F.png,128-30F.png,ss,inv,128-30F_mask.png,0.4147811000002548,1,33.36370892508618,384,2
131-37F.png,129-94F.png,dd,up,131-37F_mask.png,0.6218496000074083,1,33.36370892508618,385,2
147_eyes.png,147_eyes.png,isos,up,147_eyes_mask.png,1.2048897000058787,1,12.637577710370472,386,1
9_eyes.png,38_eyes.png,isod,inv,9_eyes_mask.png,0.5484915999986697,1,23.36370892508618,387,2
135_eyes.png,135_eyes.png,isos,inv,135_eyes_mask.png,0.500113500005682,1,13.646572368403794,388,1
2-8.png,46-8.png,ds,up,2-8_mask.png,0.7995699000020977,1,13.646572368403794,389,2
13-128F.png,13-128F.png,ss,up,13-128F_mask.png,0.7348147000011522,1,13.646572368403794,390,1
25-55.png,25-55.png,ss,inv,25-55_mask.png,0.6250012000091374,1,13.646572368403794,391,2
197-103F.png,135-192F.png,dd,up,197-103F_mask.png,0.6791935000073863,1,13.646572368403794,392,1
145-148.png,145-148.png,ss,inv,145-148_mask.png,0.843455800000811,0,13.646572368403794,393,1
125_eyes.png,100_eyes.png,isod,up,125_eyes_mask.png,0.5055872000084491,1,8.607263960508302,394,2
17-38.png,125-38.png,ds,inv,17-38_mask.png,0.6047798999934457,1,8.607263960508302,395,2
8_eyes.png,93_eyes.png,isod,up,8_eyes_mask.png,0.4450288000080036,1,12.637577710370472,396,1
225_eyes.png,225_eyes.png,isos,up,225_eyes_mask.png,0.5374580999923637,1,8.607263960508302,397,2
65-208F.png,41-208F.png,ds,up,65-208F_mask.png,1.2435560000012629,0,8.607263960508302,398,2
65-20F.png,65-20F.png,ss,up,65-20F_mask.png,0.5691040999954566,1,8.607263960508302,399,1
145-148.png,52-66.png,dd,inv,145-148_mask.png,0.8497973999910755,0,8.607263960508302,400,2
103_eyes.png,103_eyes.png,isos,inv,103_eyes_mask.png,0.5034587999980431,1,13.646572368403794,401,1
96-128F.png,13-128F.png,ds,up,96-128F_mask.png,0.7788815000094473,1,13.646572368403794,402,1
135-192F.png,197-103F.png,dd,inv,135-192F_mask.png,0.7551141000003554,0,13.646572368403794,403,1
66_eyes.png,148_eyes.png,isod,up,66_eyes_mask.png,0.6207808000035584,1,7.970863616012756,404,2
49-87.png,49-146.png,sd,up,49-87_mask.png,0.8194268999941414,1,7.970863616012756,405,1
46-93.png,46-93.png,ss,inv,46-93_mask.png,0.5142576999933226,1,7.970863616012756,406,1
46-93.png,46-93.png,ss,up,46-93_mask.png,0.5650766999897314,1,7.970863616012756,407,2
135-192F.png,135-192F.png,ss,up,135-192F_mask.png,0.49340600000869017,1,7.970863616012756,408,2
65-208F.png,41-20F.png,dd,up,65-208F_mask.png,0.6251596000074642,0,7.970863616012756,409,1
225-96F.png,128-30F.png,dd,up,225-96F_mask.png,0.6788050000031944,0,7.970863616012756,410,2
197_eyes.png,135_eyes.png,isod,inv,197_eyes_mask.png,0.6036045999935595,0,23.36370892508618,411,2
44-125.png,44-100.png,sd,inv,44-125_mask.png,0.5068006000074092,1,23.36370892508618,412,2
139-135F.png,103-197F.png,dd,inv,139-135F_mask.png,0.830435200012289,0,23.36370892508618,413,2
25-55.png,7-147.png,dd,inv,25-55_mask.png,1.2605182999977842,0,23.36370892508618,414,1
76_eyes.png,76_eyes.png,isos,inv,76_eyes_mask.png,0.5619588999979896,1,23.36370892508618,415,2
38_eyes.png,38_eyes.png,isos,up,38_eyes_mask.png,0.5311133000068367,1,12.637577710370472,416,1
103_eyes.png,192_eyes.png,isod,inv,103_eyes_mask.png,0.6457061999972211,1,13.646572368403794,417,1
128_eyes.png,128_eyes.png,isos,up,128_eyes_mask.png,0.627935600001365,1,7.381517178581321,418,2
8_eyes.png,93_eyes.png,isod,inv,8_eyes_mask.png,0.6184765999933006,1,13.646572368403794,419,1
96_eyes.png,30_eyes.png,isod,up,96_eyes_mask.png,0.9615057000046363,1,12.637577710370472,420,1
125_eyes.png,125_eyes.png,isos,inv,125_eyes_mask.png,0.6347998000128428,1,23.36370892508618,421,2
129-94F.png,129-37F.png,sd,up,129-94F_mask.png,1.3124151000083657,0,23.36370892508618,422,1
65-208F.png,65-20F.png,sd,up,65-208F_mask.png,0.8993890999990981,0,23.36370892508618,423,2
24-76.png,24-2.png,sd,inv,24-76_mask.png,0.8467461000109324,1,23.36370892508618,424,1
2-8.png,46-8.png,ds,inv,2-8_mask.png,0.652619100001175,1,23.36370892508618,425,1
103-135F.png,103-197F.png,sd,inv,103-135F_mask.png,0.889821499993559,0,23.36370892508618,426,1
111-216F.png,192-216F.png,ds,up,111-216F_mask.png,0.7659058999997796,1,23.36370892508618,427,1
128-96F.png,128-30F.png,sd,inv,128-96F_mask.png,0.6464427000028081,1,23.36370892508618,428,2
123-100.png,44-100.png,ds,inv,123-100_mask.png,0.6201507000077982,1,23.36370892508618,429,1
146-25.png,147-25.png,ds,inv,146-25_mask.png,0.6587530999968294,1,23.36370892508618,430,2
96-128F.png,96-225F.png,sd,up,96-128F_mask.png,0.5757315999944694,1,23.36370892508618,431,2
208-65F.png,20-13F.png,dd,up,208-65F_mask.png,0.9257410000136588,1,23.36370892508618,432,1
93_eyes.png,8_eyes.png,isod,up,93_eyes_mask.png,0.5604001000028802,1,7.381517178581321,433,2
148_eyes.png,148_eyes.png,isos,up,148_eyes_mask.png,0.6255483999993885,1,6.330327047908198,434,2
9_eyes.png,9_eyes.png,isos,inv,9_eyes_mask.png,0.5281293000007281,1,23.36370892508618,435,2
96-128F.png,96-128F.png,ss,inv,96-128F_mask.png,0.49056009999185335,1,23.36370892508618,436,1
160-2.png,160-76.png,sd,inv,160-2_mask.png,0.5021835000079591,1,23.36370892508618,437,1
100_eyes.png,125_eyes.png,isod,inv,100_eyes_mask.png,0.505791000003228,1,12.637577710370472,438,1
25-55.png,25-147.png,sd,up,25-55_mask.png,0.7810045999940485,0,12.637577710370472,439,1
44-100.png,44-125.png,sd,up,44-100_mask.png,1.4053972999972757,1,12.637577710370472,440,1
2-93.png,2-93.png,ss,up,2-93_mask.png,0.7888214999984484,1,12.637577710370472,441,2
197-192F.png,197-103F.png,sd,up,197-192F_mask.png,1.2686650000105146,1,12.637577710370472,442,2
111-216F.png,192-220F.png,dd,inv,111-216F_mask.png,0.6175420999934431,1,12.637577710370472,443,2
46-93.png,2-93.png,ds,inv,46-93_mask.png,0.6162023999931989,1,12.637577710370472,444,2
192-216F.png,192-216F.png,ss,inv,192-216F_mask.png,0.5668775999947684,1,12.637577710370472,445,1
208-65F.png,208-13F.png,sd,up,208-65F_mask.png,0.9753575999930035,1,12.637577710370472,446,2
145-148.png,52-148.png,ds,up,145-148_mask.png,0.6154867000004742,1,12.637577710370472,447,1
216_eyes.png,216_eyes.png,isos,up,216_eyes_mask.png,0.6544682999956422,0,11.703185684592045,448,1
44-125.png,44-125.png,ss,up,44-125_mask.png,0.7798788000072818,1,11.703185684592045,449,1
46-8.png,2-93.png,dd,up,46-8_mask.png,0.8201661000057356,1,11.703185684592045,450,2
96-128F.png,13-128F.png,ds,inv,96-128F_mask.png,0.7227190999983577,1,11.703185684592045,451,1
208_eyes.png,20_eyes.png,isod,up,208_eyes_mask.png,0.5176749999955064,0,12.637577710370472,452,1
65-20F.png,65-20F.png,ss,inv,65-20F_mask.png,0.8083413999993354,1,12.637577710370472,453,2
94_eyes.png,94_eyes.png,isos,inv,94_eyes_mask.png,0.6234022999997251,1,12.637577710370472,454,1
13_eyes.png,13_eyes.png,isos,up,13_eyes_mask.png,0.5825446999951964,1,13.646572368403794,455,1
111-216F.png,192-216F.png,ds,inv,111-216F_mask.png,0.9345088999980362,1,13.646572368403794,456,2
125_eyes.png,100_eyes.png,isod,inv,125_eyes_mask.png,0.920818300000974,1,23.36370892508618,457,2
147-7.png,147-25.png,sd,inv,147-7_mask.png,0.699349100003019,1,23.36370892508618,458,2
148_eyes.png,148_eyes.png,isos,up,148_eyes_mask.png,0.6867344999918714,0,5.862277928868478,459,2
128-96F.png,225-30F.png,dd,up,128-96F_mask.png,0.6507770999887725,1,5.862277928868478,460,2
96-225F.png,13-225F.png,ds,up,96-225F_mask.png,0.6001121000008425,0,5.862277928868478,461,1
25-147.png,7-147.png,ds,up,25-147_mask.png,1.9671588000055635,1,5.862277928868478,462,2
65_eyes.png,13_eyes.png,isod,up,65_eyes_mask.png,0.49599389999639243,1,23.646572368403795,463,1
225-30F.png,128-96F.png,dd,up,225-30F_mask.png,0.6998556999897119,1,23.646572368403795,464,1
20-13F.png,20-65F.png,sd,inv,20-13F_mask.png,0.5831592999893473,1,23.646572368403795,465,1
192_eyes.png,103_eyes.png,isod,inv,192_eyes_mask.png,0.7833608999935677,1,23.36370892508618,466,2
145-66.png,52-66.png,ds,inv,145-66_mask.png,0.5193415000103414,1,23.36370892508618,467,1
208_eyes.png,208_eyes.png,isos,inv,208_eyes_mask.png,0.4584709000046132,1,33.36370892508618,468,2
103_eyes.png,103_eyes.png,isos,inv,103_eyes_mask.png,0.9273799999937182,1,12.637577710370472,469,1
76_eyes.png,2_eyes.png,isod,inv,76_eyes_mask.png,0.5697884999972302,1,22.637577710370472,470,1
197-103F.png,135-103F.png,ds,up,197-103F_mask.png,1.1144210999918869,1,22.637577710370472,471,2
41-20F.png,65-208F.png,dd,inv,41-20F_mask.png,0.701324099994963,1,22.637577710370472,472,1
111-216F.png,111-220F.png,sd,inv,111-216F_mask.png,0.6645456999976886,1,22.637577710370472,473,2
96-128F.png,13-225F.png,dd,inv,96-128F_mask.png,1.5818483000039123,1,22.637577710370472,474,1
128-30F.png,128-30F.png,ss,up,128-30F_mask.png,0.6375929000059841,1,22.637577710370472,475,2
123-100.png,123-100.png,ss,inv,123-100_mask.png,0.7317345999908866,1,22.637577710370472,476,2
129-94F.png,131-37F.png,dd,inv,129-94F_mask.png,0.7176718999980949,1,22.637577710370472,477,2
151-146.png,151-146.png,ss,up,151-146_mask.png,0.7125684000056935,1,22.637577710370472,478,1
216_eyes.png,220_eyes.png,isod,up,216_eyes_mask.png,0.6199415000010049,1,17.970863616012757,479,2
208_eyes.png,20_eyes.png,isod,inv,208_eyes_mask.png,0.7199435000075027,1,12.637577710370472,480,1
41-20F.png,65-20F.png,ds,up,41-20F_mask.png,0.8187459000037052,1,12.637577710370472,481,2
148_eyes.png,66_eyes.png,isod,up,148_eyes_mask.png,0.521802299990668,1,7.970863616012756,482,2
131-37F.png,129-94F.png,dd,inv,131-37F_mask.png,0.588293299995712,1,7.970863616012756,483,2
208-13F.png,20-13F.png,ds,inv,208-13F_mask.png,0.5482781999889994,1,7.970863616012756,484,1
30_eyes.png,30_eyes.png,isos,inv,30_eyes_mask.png,0.5584801999939373,1,23.36370892508618,485,2
128_eyes.png,128_eyes.png,isos,up,128_eyes_mask.png,0.5117997000052128,1,7.970863616012756,486,2
13_eyes.png,65_eyes.png,isod,up,13_eyes_mask.png,0.5707758000062313,1,7.381517178581321,487,2
197_eyes.png,197_eyes.png,isos,inv,197_eyes_mask.png,0.49162950000027195,1,12.637577710370472,488,1
197_eyes.png,135_eyes.png,isod,inv,197_eyes_mask.png,0.5178070999972988,1,23.36370892508618,489,2
49-87.png,49-146.png,sd,inv,49-87_mask.png,0.736392299993895,0,23.36370892508618,490,2
41-20F.png,41-208F.png,sd,up,41-20F_mask.png,0.6583708999969531,1,23.36370892508618,491,1
131-94F.png,129-94F.png,ds,inv,131-94F_mask.png,0.45539620000636205,1,23.36370892508618,492,2
147-7.png,147-25.png,sd,up,147-7_mask.png,0.7645118999935221,1,23.36370892508618,493,2
131-94F.png,131-94F.png,ss,inv,131-94F_mask.png,0.6377020000072662,1,23.36370892508618,494,1
17-38.png,125-9.png,dd,up,17-38_mask.png,0.9315914000035264,0,23.36370892508618,495,1
151-87.png,151-146.png,sd,inv,151-87_mask.png,1.005965999996988,1,23.36370892508618,496,1
103-197F.png,139-135F.png,dd,up,103-197F_mask.png,0.6694262999953935,1,23.36370892508618,497,1
197-192F.png,135-192F.png,ds,up,197-192F_mask.png,0.8980842000019038,1,23.36370892508618,498,2
87_eyes.png,146_eyes.png,isod,up,87_eyes_mask.png,0.6139683999936096,1,13.646572368403794,499,1
123-100.png,123-100.png,ss,up,123-100_mask.png,0.7729076000105124,1,13.646572368403794,500,2
52-148.png,52-66.png,sd,up,52-148_mask.png,0.8376458999991883,0,13.646572368403794,501,1
145-148.png,52-148.png,ds,inv,145-148_mask.png,0.7396893999975873,1,13.646572368403794,502,2
2-93.png,46-8.png,dd,up,2-93_mask.png,0.6137400000006892,1,13.646572368403794,503,2
7-55.png,7-147.png,sd,inv,7-55_mask.png,0.8047202000016114,1,13.646572368403794,504,2
41-20F.png,41-20F.png,ss,inv,41-20F_mask.png,0.5959499000018695,1,13.646572368403794,505,2
145-148.png,145-66.png,sd,up,145-148_mask.png,0.6518005999969319,1,13.646572368403794,506,2
24-76.png,160-2.png,dd,up,24-76_mask.png,0.7049044000013964,0,13.646572368403794,507,2
147-25.png,146-7.png,dd,inv,147-25_mask.png,1.0522968000004767,0,13.646572368403794,508,1
65_eyes.png,13_eyes.png,isod,up,65_eyes_mask.png,0.610036800004309,1,13.646572368403794,509,1
41-20F.png,41-20F.png,ss,up,41-20F_mask.png,0.7450094999949215,1,13.646572368403794,510,1
2_eyes.png,2_eyes.png,isos,up,2_eyes_mask.png,0.8031249000050593,1,13.646572368403794,511,1
13-225F.png,13-225F.png,ss,inv,13-225F_mask.png,0.6023463000019547,1,13.646572368403794,512,1
41-208F.png,65-208F.png,ds,up,41-208F_mask.png,0.6895974999933969,0,13.646572368403794,513,1
49-146.png,151-146.png,ds,up,49-146_mask.png,0.5655884000007063,1,13.646572368403794,514,1
55_eyes.png,147_eyes.png,isod,inv,55_eyes_mask.png,0.5746108000021195,1,12.637577710370472,515,1
96_eyes.png,96_eyes.png,isos,up,96_eyes_mask.png,0.7508918000094127,1,12.637577710370472,516,1
7_eyes.png,7_eyes.png,isos,inv,7_eyes_mask.png,0.5847274999978254,1,23.36370892508618,517,2
94_eyes.png,94_eyes.png,isos,up,94_eyes_mask.png,0.5289540000085253,1,6.8357455957761015,518,2
41-20F.png,41-208F.png,sd,inv,41-20F_mask.png,0.7712041000049794,0,6.8357455957761015,519,1
65-208F.png,41-208F.png,ds,inv,65-208F_mask.png,0.6279533999913838,0,6.8357455957761015,520,1
2_eyes.png,2_eyes.png,isos,inv,2_eyes_mask.png,0.6667388999921968,0,11.703185684592045,521,1
7-55.png,7-55.png,ss,up,7-55_mask.png,0.6553649000125006,1,11.703185684592045,522,1
65_eyes.png,13_eyes.png,isod,inv,65_eyes_mask.png,0.7330407999979798,1,23.36370892508618,523,2
139-135F.png,139-135F.png,ss,inv,139-135F_mask.png,0.6389179999969201,1,23.36370892508618,524,2
17-9.png,125-38.png,dd,inv,17-9_mask.png,0.6370033999992302,1,23.36370892508618,525,1
146-7.png,146-7.png,ss,up,146-7_mask.png,0.618847799996729,1,23.36370892508618,526,2
208-13F.png,20-65F.png,dd,inv,208-13F_mask.png,0.545646200000192,1,23.36370892508618,527,2
197-192F.png,135-192F.png,ds,inv,197-192F_mask.png,0.5878762999927858,1,23.36370892508618,528,2
220_eyes.png,216_eyes.png,isod,inv,220_eyes_mask.png,0.4839934999909019,1,23.36370892508618,529,2
160-76.png,160-2.png,sd,inv,160-76_mask.png,0.47987490000377875,0,23.36370892508618,530,2
139-197F.png,103-135F.png,dd,up,139-197F_mask.png,0.5962392000074033,1,23.36370892508618,531,2
55_eyes.png,55_eyes.png,isos,up,55_eyes_mask.png,1.4842595999944024,0,6.330327047908198,532,2
192-220F.png,111-216F.png,dd,up,192-220F_mask.png,0.7842279999895254,1,6.330327047908198,533,2
129-94F.png,131-94F.png,ds,inv,129-94F_mask.png,0.656150399998296,1,6.330327047908198,534,1
146_eyes.png,146_eyes.png,isos,inv,146_eyes_mask.png,0.47001459999592043,1,23.36370892508618,535,2
225_eyes.png,225_eyes.png,isos,inv,225_eyes_mask.png,0.7061440999968909,1,12.637577710370472,536,1
65-20F.png,65-208F.png,sd,up,65-20F_mask.png,0.5976061999972444,1,12.637577710370472,537,1
96-225F.png,96-225F.png,ss,inv,96-225F_mask.png,0.8693773999984842,1,12.637577710370472,538,1
7-147.png,25-147.png,ds,inv,7-147_mask.png,0.641635399995721,1,12.637577710370472,539,2
145-66.png,52-66.png,ds,up,145-66_mask.png,0.5834819000010611,1,12.637577710370472,540,1
160-2.png,24-76.png,dd,up,160-2_mask.png,0.5750375000061467,1,12.637577710370472,541,1
135_eyes.png,197_eyes.png,isod,up,135_eyes_mask.png,0.7997383000038099,1,12.637577710370472,542,1
44-125.png,123-100.png,dd,up,44-125_mask.png,1.5030573999974877,1,12.637577710370472,543,1
147-7.png,147-7.png,ss,up,147-7_mask.png,0.5304134999896633,1,12.637577710370472,544,1
38_eyes.png,9_eyes.png,isod,up,38_eyes_mask.png,0.700452300006873,1,7.970863616012756,545,2
111-220F.png,111-220F.png,ss,inv,111-220F_mask.png,1.0475700000097277,0,7.970863616012756,546,1
197-103F.png,135-103F.png,ds,inv,197-103F_mask.png,0.8852456000022357,0,7.970863616012756,547,1
52-66.png,52-66.png,ss,up,52-66_mask.png,0.5772220000071684,1,7.970863616012756,548,2
111-220F.png,111-216F.png,sd,inv,111-220F_mask.png,0.5375616000092123,1,7.970863616012756,549,1
123-100.png,44-125.png,dd,inv,123-100_mask.png,1.6677602999989176,1,7.970863616012756,550,1
7_eyes.png,7_eyes.png,isos,inv,7_eyes_mask.png,0.6086958999949275,1,12.637577710370472,551,1
25-147.png,25-55.png,sd,up,25-147_mask.png,1.3435636999929557,0,12.637577710370472,552,1
25-147.png,25-147.png,ss,inv,25-147_mask.png,0.5771861000102945,1,12.637577710370472,553,2
148_eyes.png,66_eyes.png,isod,up,148_eyes_mask.png,0.5302280000032624,1,7.970863616012756,554,2
65-208F.png,65-208F.png,ss,inv,65-208F_mask.png,0.8122064000053797,0,7.970863616012756,555,2
146_eyes.png,87_eyes.png,isod,inv,146_eyes_mask.png,0.6756258999957936,1,12.637577710370472,556,1
25_eyes.png,25_eyes.png,isos,up,25_eyes_mask.png,0.6399323000077857,1,17.38151717858132,557,2
111-216F.png,111-220F.png,sd,up,111-216F_mask.png,0.5660522999969544,1,17.38151717858132,558,2
111-220F.png,111-220F.png,ss,up,111-220F_mask.png,0.5735721000091871,1,17.38151717858132,559,2
128-30F.png,225-96F.png,dd,inv,128-30F_mask.png,0.5740546000015456,1,17.38151717858132,560,2
46-93.png,46-8.png,sd,up,46-93_mask.png,0.6621225999988383,1,17.38151717858132,561,2
125-9.png,17-38.png,dd,inv,125-9_mask.png,0.7152461000077892,1,17.38151717858132,562,2
125-38.png,17-9.png,dd,inv,125-38_mask.png,1.1258573000086471,1,17.38151717858132,563,1
135_eyes.png,197_eyes.png,isod,inv,135_eyes_mask.png,1.8648054000077536,0,22.637577710370472,564,1
38_eyes.png,38_eyes.png,isos,inv,38_eyes_mask.png,0.7419554000080097,1,23.36370892508618,565,2
225-96F.png,225-30F.png,sd,inv,225-96F_mask.png,0.7357381000038004,1,23.36370892508618,566,1
87_eyes.png,146_eyes.png,isod,inv,87_eyes_mask.png,0.8740732000005664,0,33.36370892508618,567,2
151-87.png,49-87.png,ds,up,151-87_mask.png,0.5743743999919388,1,33.36370892508618,568,1
128-96F.png,225-96F.png,ds,up,128-96F_mask.png,0.5907887000066694,1,33.36370892508618,569,2
24-76.png,24-76.png,ss,up,24-76_mask.png,0.5583445000083884,1,33.36370892508618,570,1
37_eyes.png,94_eyes.png,isod,up,37_eyes_mask.png,0.5997135000070557,1,12.637577710370472,571,1
139-197F.png,103-197F.png,ds,up,139-197F_mask.png,0.7109713999961969,0,12.637577710370472,572,2
2-93.png,2-8.png,sd,inv,2-93_mask.png,0.9859409000055166,1,12.637577710370472,573,2
220_eyes.png,220_eyes.png,isos,up,220_eyes_mask.png,0.7383675000019139,0,12.637577710370472,574,1
192_eyes.png,192_eyes.png,isos,up,192_eyes_mask.png,0.6284161999938078,1,23.646572368403795,575,1
139-135F.png,103-135F.png,ds,up,139-135F_mask.png,1.3774223000073107,0,23.646572368403795,576,1
129-94F.png,131-37F.png,dd,up,129-94F_mask.png,0.7936056999897119,0,23.646572368403795,577,2
2_eyes.png,76_eyes.png,isod,inv,2_eyes_mask.png,0.6816815999918617,1,23.36370892508618,578,2
100_eyes.png,100_eyes.png,isos,up,100_eyes_mask.png,1.6144200999988243,0,13.646572368403794,579,1
46-8.png,2-8.png,ds,up,46-8_mask.png,0.4852516000100877,1,13.646572368403794,580,2
30_eyes.png,96_eyes.png,isod,inv,30_eyes_mask.png,0.593708999993396,1,12.637577710370472,581,1
139-197F.png,103-135F.png,dd,inv,139-197F_mask.png,0.7932319999963511,1,12.637577710370472,582,2
55_eyes.png,55_eyes.png,isos,up,55_eyes_mask.png,0.5773500000068452,1,13.646572368403794,583,1
52-148.png,52-148.png,ss,up,52-148_mask.png,0.6018298000126379,1,13.646572368403794,584,1
30_eyes.png,96_eyes.png,isod,up,30_eyes_mask.png,0.5612785000121221,1,13.646572368403794,585,1
7-147.png,7-55.png,sd,up,7-147_mask.png,0.6340069999860134,1,13.646572368403794,586,2
24-76.png,160-76.png,ds,inv,24-76_mask.png,0.799844099994516,1,13.646572368403794,587,2
49-146.png,151-87.png,dd,up,49-146_mask.png,0.6392506000120193,1,13.646572368403794,588,2
103-197F.png,139-197F.png,ds,inv,103-197F_mask.png,0.933280699988245,1,13.646572368403794,589,1
17-38.png,17-9.png,sd,inv,17-38_mask.png,0.6234368000004906,1,13.646572368403794,590,1
151-87.png,151-87.png,ss,up,151-87_mask.png,0.5820951000059722,1,13.646572368403794,591,1
25_eyes.png,25_eyes.png,isos,inv,25_eyes_mask.png,0.9342688999895472,1,12.637577710370472,592,1
111-216F.png,111-216F.png,ss,up,111-216F_mask.png,0.5202129999961471,0,12.637577710370472,593,2
46-93.png,46-8.png,sd,inv,46-93_mask.png,0.7949075999931665,1,12.637577710370472,594,2
131-37F.png,131-94F.png,sd,inv,131-37F_mask.png,0.6827398000023095,0,12.637577710370472,595,1
103_eyes.png,192_eyes.png,isod,up,103_eyes_mask.png,0.6151079999981448,1,7.381517178581321,596,2
87_eyes.png,146_eyes.png,isod,inv,87_eyes_mask.png,1.0302120999986073,1,12.637577710370472,597,1
129-37F.png,129-94F.png,sd,inv,129-37F_mask.png,0.7808020999946166,0,12.637577710370472,598,2
145-66.png,145-66.png,ss,inv,145-66_mask.png,0.6531379999942146,1,12.637577710370472,599,2
139-135F.png,103-135F.png,ds,inv,139-135F_mask.png,1.250236699997913,1,12.637577710370472,600,1
148_eyes.png,148_eyes.png,isos,inv,148_eyes_mask.png,0.5837790999939898,1,12.637577710370472,601,1
24-2.png,160-76.png,dd,inv,24-2_mask.png,0.647718200008967,0,12.637577710370472,602,2
123-125.png,44-100.png,dd,inv,123-125_mask.png,0.8525504999997793,1,12.637577710370472,603,1
24-76.png,24-76.png,ss,inv,24-76_mask.png,0.8020853999914834,1,12.637577710370472,604,1
147-25.png,146-25.png,ds,up,147-25_mask.png,0.8812285000021802,0,12.637577710370472,605,1
146-7.png,147-25.png,dd,up,146-7_mask.png,1.1575850999943214,0,12.637577710370472,606,1
24-2.png,24-2.png,ss,up,24-2_mask.png,0.7906957999948645,1,12.637577710370472,607,2
128-30F.png,128-96F.png,sd,up,128-30F_mask.png,0.9583645999955479,1,12.637577710370472,608,1
96_eyes.png,96_eyes.png,isos,up,96_eyes_mask.png,0.8953966000117362,1,6.8357455957761015,609,2
100_eyes.png,100_eyes.png,isos,inv,100_eyes_mask.png,0.6193693999957759,1,23.36370892508618,610,2
128-30F.png,225-30F.png,ds,up,128-30F_mask.png,0.9060750000062399,1,23.36370892508618,611,2
197-103F.png,197-192F.png,sd,up,197-103F_mask.png,0.9892216000007465,0,23.36370892508618,612,2
25_eyes.png,7_eyes.png,isod,up,25_eyes_mask.png,0.6937771000084467,1,13.646572368403794,613,1
44-100.png,123-100.png,ds,inv,44-100_mask.png,0.6171630999888293,1,13.646572368403794,614,2
37_eyes.png,37_eyes.png,isos,up,37_eyes_mask.png,0.728393600002164,0,6.8357455957761015,615,2
17-9.png,125-38.png,dd,up,17-9_mask.png,1.2825344000011683,0,6.8357455957761015,616,1
135-103F.png,135-103F.png,ss,inv,135-103F_mask.png,0.5745915000006789,0,6.8357455957761015,617,2
103-135F.png,139-197F.png,dd,inv,103-135F_mask.png,0.7828842999879271,1,6.8357455957761015,618,1
125-38.png,125-9.png,sd,up,125-38_mask.png,1.0149118999979692,0,6.8357455957761015,619,1
151-87.png,151-87.png,ss,inv,151-87_mask.png,0.7740195000078529,1,6.8357455957761015,620,1
216_eyes.png,220_eyes.png,isod,inv,216_eyes_mask.png,0.5026665000041248,1,23.36370892508618,621,2
76_eyes.png,2_eyes.png,isod,up,76_eyes_mask.png,1.4903793999983463,1,7.970863616012756,622,2
20_eyes.png,20_eyes.png,isos,inv,20_eyes_mask.png,0.6139423999993596,1,23.36370892508618,623,2
103-197F.png,103-135F.png,sd,inv,103-197F_mask.png,0.6982101000030525,1,23.36370892508618,624,2
151-146.png,49-87.png,dd,inv,151-146_mask.png,0.6620120000006864,1,23.36370892508618,625,1
96-128F.png,96-128F.png,ss,up,96-128F_mask.png,0.5068291000061436,1,23.36370892508618,626,2
65-20F.png,41-20F.png,ds,inv,65-20F_mask.png,0.6134771999932127,1,23.36370892508618,627,2
100_eyes.png,100_eyes.png,isos,up,100_eyes_mask.png,0.49286949999805074,1,13.646572368403794,628,1
208_eyes.png,208_eyes.png,isos,inv,208_eyes_mask.png,0.5370232999994187,1,23.36370892508618,629,2
24-76.png,24-2.png,sd,up,24-76_mask.png,0.562583299994003,1,23.36370892508618,630,1
17-38.png,125-38.png,ds,up,17-38_mask.png,0.6436452999914763,1,23.36370892508618,631,1
147-25.png,147-7.png,sd,inv,147-25_mask.png,0.4651726000010967,0,23.36370892508618,632,1
220_eyes.png,220_eyes.png,isos,up,220_eyes_mask.png,0.44566659998963587,1,7.381517178581321,633,2
13-128F.png,96-225F.png,dd,inv,13-128F_mask.png,0.651187099996605,1,7.381517178581321,634,2
151-146.png,49-146.png,ds,up,151-146_mask.png,0.5686368000024231,1,7.381517178581321,635,2
146-25.png,146-25.png,ss,inv,146-25_mask.png,0.6651950000086799,1,7.381517178581321,636,2
192-220F.png,192-216F.png,sd,up,192-220F_mask.png,0.7340094999963185,0,7.381517178581321,637,2
146-25.png,146-7.png,sd,up,146-25_mask.png,0.6558393999875989,1,7.381517178581321,638,1
160-2.png,160-2.png,ss,inv,160-2_mask.png,0.7011360000033164,1,7.381517178581321,639,1
147-25.png,146-25.png,ds,inv,147-25_mask.png,0.7365946000063559,0,7.381517178581321,640,1
128_eyes.png,225_eyes.png,isod,inv,128_eyes_mask.png,0.491015099993092,0,23.36370892508618,641,2
66_eyes.png,66_eyes.png,isos,up,66_eyes_mask.png,0.5669122999970568,1,13.646572368403794,642,1
25-147.png,7-55.png,dd,up,25-147_mask.png,0.8076732000045013,1,13.646572368403794,643,2
128-96F.png,128-96F.png,ss,up,128-96F_mask.png,0.6945896999968681,1,13.646572368403794,644,2
131-94F.png,129-94F.png,ds,up,131-94F_mask.png,0.6822267999959877,1,13.646572368403794,645,1
96-225F.png,96-128F.png,sd,up,96-225F_mask.png,0.7981634000025224,0,13.646572368403794,646,2
225_eyes.png,225_eyes.png,isos,up,225_eyes_mask.png,1.2621705000055954,1,7.381517178581321,647,2
2-8.png,46-93.png,dd,inv,2-8_mask.png,0.9792861000023549,0,7.381517178581321,648,2
135-192F.png,197-192F.png,ds,inv,135-192F_mask.png,0.8835118999995757,1,7.381517178581321,649,2
135-192F.png,197-192F.png,ds,up,135-192F_mask.png,0.8075016000075266,1,7.381517178581321,650,2
197-192F.png,197-192F.png,ss,inv,197-192F_mask.png,0.7185105999960797,1,7.381517178581321,651,2
96_eyes.png,96_eyes.png,isos,inv,96_eyes_mask.png,0.6416559999925084,1,11.703185684592045,652,1
103_eyes.png,192_eyes.png,isod,inv,103_eyes_mask.png,0.6863475999998627,1,23.36370892508618,653,2
2-8.png,2-93.png,sd,inv,2-8_mask.png,0.6903491999983089,1,23.36370892508618,654,2
46-93.png,2-8.png,dd,inv,46-93_mask.png,0.8058625999983633,1,23.36370892508618,655,1
25_eyes.png,7_eyes.png,isod,inv,25_eyes_mask.png,0.7417332000040915,1,11.703185684592045,656,1
100_eyes.png,100_eyes.png,isos,inv,100_eyes_mask.png,0.6229637000069488,1,11.703185684592045,657,1
49-146.png,151-146.png,ds,inv,49-146_mask.png,0.7894659000012325,0,11.703185684592045,658,1
160-76.png,24-2.png,dd,up,160-76_mask.png,0.7734953000035603,1,11.703185684592045,659,2
192_eyes.png,103_eyes.png,isod,up,192_eyes_mask.png,1.4621725999895716,1,7.381517178581321,660,2
135_eyes.png,197_eyes.png,isod,inv,135_eyes_mask.png,0.8437763000110863,1,21.703185684592043,661,1
8_eyes.png,93_eyes.png,isod,up,8_eyes_mask.png,0.7534680999960983,1,16.835745595776103,662,2
145-148.png,52-66.png,dd,up,145-148_mask.png,0.6428085999941686,0,16.835745595776103,663,1
94_eyes.png,37_eyes.png,isod,up,94_eyes_mask.png,0.46477130000130273,1,13.646572368403794,664,1
20-13F.png,208-65F.png,dd,up,20-13F_mask.png,0.6459366000053706,1,13.646572368403794,665,1
139-197F.png,139-197F.png,ss,inv,139-197F_mask.png,1.0675062999944203,1,13.646572368403794,666,1
41-208F.png,41-20F.png,sd,inv,41-208F_mask.png,0.7521866999886697,1,13.646572368403794,667,1
139-135F.png,139-135F.png,ss,up,139-135F_mask.png,0.7694894999876851,1,13.646572368403794,668,1
37_eyes.png,94_eyes.png,isod,up,37_eyes_mask.png,0.7545607999927597,1,23.646572368403795,669,1
30_eyes.png,30_eyes.png,isos,inv,30_eyes_mask.png,0.868248599988874,1,33.36370892508618,670,2
197-192F.png,197-192F.png,ss,up,197-192F_mask.png,0.4807876999984728,1,33.36370892508618,671,1
49-146.png,49-87.png,sd,inv,49-146_mask.png,0.7375229000026593,1,33.36370892508618,672,1
151-146.png,49-146.png,ds,inv,151-146_mask.png,0.4514692999946419,1,33.36370892508618,673,2
13-225F.png,96-128F.png,dd,inv,13-225F_mask.png,0.5362850999954389,1,33.36370892508618,674,2
13-225F.png,13-225F.png,ss,up,13-225F_mask.png,0.7621607999899425,1,33.36370892508618,675,1
44-125.png,123-125.png,ds,up,44-125_mask.png,0.7072154999914346,1,33.36370892508618,676,2
208_eyes.png,208_eyes.png,isos,up,208_eyes_mask.png,0.6144623000000138,1,13.646572368403794,677,1
135-103F.png,135-192F.png,sd,up,135-103F_mask.png,0.7655704000062542,0,13.646572368403794,678,2
52-148.png,145-66.png,dd,up,52-148_mask.png,0.5902839000045788,1,13.646572368403794,679,1
52-148.png,145-66.png,dd,inv,52-148_mask.png,0.8298259000002872,1,13.646572368403794,680,1
146-25.png,146-7.png,sd,inv,146-25_mask.png,1.284074299997883,1,13.646572368403794,681,2
135-103F.png,197-192F.png,dd,up,135-103F_mask.png,0.7440903999959119,1,13.646572368403794,682,1
41-208F.png,41-208F.png,ss,up,41-208F_mask.png,1.6658725000015693,1,13.646572368403794,683,2
55_eyes.png,55_eyes.png,isos,inv,55_eyes_mask.png,0.5750102000019979,1,23.36370892508618,684,2
208-65F.png,208-65F.png,ss,inv,208-65F_mask.png,0.5350927999970736,1,23.36370892508618,685,2
94_eyes.png,94_eyes.png,isos,up,94_eyes_mask.png,0.6335091000073589,0,6.8357455957761015,686,2
13-128F.png,96-225F.png,dd,up,13-128F_mask.png,0.6156263000011677,1,6.8357455957761015,687,2
55_eyes.png,55_eyes.png,isos,inv,55_eyes_mask.png,0.5344919000053778,1,23.36370892508618,688,2
145-148.png,145-148.png,ss,up,145-148_mask.png,0.5844389999983832,1,23.36370892508618,689,2
20_eyes.png,20_eyes.png,isos,up,20_eyes_mask.png,0.5048346999974456,1,12.637577710370472,690,1
93_eyes.png,93_eyes.png,isos,inv,93_eyes_mask.png,0.6606422999902861,0,11.703185684592045,691,1
2-93.png,2-93.png,ss,inv,2-93_mask.png,0.6814990999992006,1,11.703185684592045,692,2
41-208F.png,65-20F.png,dd,inv,41-208F_mask.png,0.7258689000009326,0,11.703185684592045,693,2
135-103F.png,197-103F.png,ds,inv,135-103F_mask.png,0.7282179000030737,0,11.703185684592045,694,2
25-147.png,25-55.png,sd,inv,25-147_mask.png,0.7703894000005675,1,11.703185684592045,695,2
135-103F.png,197-103F.png,ds,up,135-103F_mask.png,0.8352130999992369,1,11.703185684592045,696,2
44-125.png,44-100.png,sd,up,44-125_mask.png,0.6731756000081077,1,11.703185684592045,697,2
96-225F.png,96-128F.png,sd,inv,96-225F_mask.png,0.8139002999960212,1,11.703185684592045,698,1
135_eyes.png,135_eyes.png,isos,up,135_eyes_mask.png,0.6612365000037244,1,7.970863616012756,699,2
7_eyes.png,25_eyes.png,isod,inv,7_eyes_mask.png,0.7625363999977708,1,12.637577710370472,700,1
146_eyes.png,87_eyes.png,isod,up,146_eyes_mask.png,0.7398906000016723,1,12.637577710370472,701,1
20-65F.png,20-13F.png,sd,up,20-65F_mask.png,0.717935499997111,1,12.637577710370472,702,1
129-94F.png,129-94F.png,ss,inv,129-94F_mask.png,0.5844123999995645,1,12.637577710370472,703,1
225-96F.png,128-96F.png,ds,inv,225-96F_mask.png,1.1844241000071634,1,12.637577710370472,704,1
216_eyes.png,220_eyes.png,isod,up,216_eyes_mask.png,0.5203780000010738,1,7.381517178581321,705,2
55_eyes.png,147_eyes.png,isod,inv,55_eyes_mask.png,0.6110954999894602,1,12.637577710370472,706,1
65-20F.png,41-208F.png,dd,up,65-20F_mask.png,0.6742533999931766,1,12.637577710370472,707,2
125-38.png,17-38.png,ds,up,125-38_mask.png,0.5664659000030952,1,12.637577710370472,708,1
220_eyes.png,216_eyes.png,isod,up,220_eyes_mask.png,0.5435667999990983,1,7.381517178581321,709,2
52-66.png,52-148.png,sd,up,52-66_mask.png,0.8492605999927036,0,7.381517178581321,710,1
66_eyes.png,148_eyes.png,isod,inv,66_eyes_mask.png,0.5269686999963596,1,23.36370892508618,711,2
125-9.png,17-9.png,ds,inv,125-9_mask.png,0.5448212000046624,1,23.36370892508618,712,1
37_eyes.png,94_eyes.png,isod,inv,37_eyes_mask.png,0.6988607999956002,1,23.36370892508618,713,2
24-2.png,160-2.png,ds,up,24-2_mask.png,0.8937560000049416,1,23.36370892508618,714,1
216_eyes.png,216_eyes.png,isos,inv,216_eyes_mask.png,0.7619053999951575,1,12.637577710370472,715,1
96-225F.png,96-225F.png,ss,up,96-225F_mask.png,0.7227312999893911,1,12.637577710370472,716,1
192-220F.png,192-220F.png,ss,inv,192-220F_mask.png,0.5335121999960393,1,12.637577710370472,717,1
46-8.png,2-93.png,dd,inv,46-8_mask.png,0.6075726999988547,1,12.637577710370472,718,1
147_eyes.png,55_eyes.png,isod,up,147_eyes_mask.png,0.7588991000084206,1,12.637577710370472,719,1
13-128F.png,96-128F.png,ds,inv,13-128F_mask.png,0.9895022000127938,0,12.637577710370472,720,1
197-192F.png,197-103F.png,sd,inv,197-192F_mask.png,0.7004098000033991,1,12.637577710370472,721,2
135_eyes.png,197_eyes.png,isod,up,135_eyes_mask.png,0.624247200001264,1,7.381517178581321,722,2
125-38.png,125-38.png,ss,up,125-38_mask.png,2.166640900002676,1,7.381517178581321,723,1
41-208F.png,41-208F.png,ss,inv,41-208F_mask.png,1.095287100004498,1,7.381517178581321,724,1
65-208F.png,65-20F.png,sd,inv,65-208F_mask.png,1.05094509999617,0,7.381517178581321,725,2
2-93.png,46-8.png,dd,inv,2-93_mask.png,0.9842184000008274,1,7.381517178581321,726,1
20_eyes.png,20_eyes.png,isos,up,20_eyes_mask.png,0.7281862000090769,0,6.8357455957761015,727,2
7-55.png,25-147.png,dd,inv,7-55_mask.png,1.0424258999992162,0,6.8357455957761015,728,2
20-65F.png,208-13F.png,dd,inv,20-65F_mask.png,0.952364700002363,1,6.8357455957761015,729,1
146-7.png,146-25.png,sd,up,146-7_mask.png,0.761600499987253,0,6.8357455957761015,730,1
216_eyes.png,216_eyes.png,isos,inv,216_eyes_mask.png,1.619068200001493,1,23.36370892508618,731,2
192-216F.png,192-216F.png,ss,up,192-216F_mask.png,0.8255812999996124,1,23.36370892508618,732,2
225_eyes.png,128_eyes.png,isod,inv,225_eyes_mask.png,0.6642651000001933,1,11.703185684592045,733,1
208-13F.png,20-65F.png,dd,up,208-13F_mask.png,0.669241100011277,1,11.703185684592045,734,1
100_eyes.png,125_eyes.png,isod,up,100_eyes_mask.png,0.5223660000046948,1,7.381517178581321,735,2
44-100.png,44-125.png,sd,inv,44-100_mask.png,1.1008317999949213,1,7.381517178581321,736,1
17-38.png,17-9.png,sd,up,17-38_mask.png,0.8558154000056675,1,7.381517178581321,737,2
66_eyes.png,148_eyes.png,isod,inv,66_eyes_mask.png,0.8453103000065312,1,23.36370892508618,738,2
13_eyes.png,65_eyes.png,isod,inv,13_eyes_mask.png,0.562058600000455,1,11.703185684592045,739,1
2_eyes.png,76_eyes.png,isod,up,2_eyes_mask.png,0.890844499997911,1,12.637577710370472,740,1
65_eyes.png,65_eyes.png,isos,up,65_eyes_mask.png,0.9986415000021225,1,17.38151717858132,741,2
129-37F.png,131-94F.png,dd,up,129-37F_mask.png,0.79012249999505,1,17.38151717858132,742,1
8_eyes.png,8_eyes.png,isos,inv,8_eyes_mask.png,0.7182126999978209,1,11.703185684592045,743,1
125-38.png,17-9.png,dd,up,125-38_mask.png,0.8568099000112852,1,11.703185684592045,744,2
151-146.png,151-87.png,sd,up,151-146_mask.png,0.6298480999976164,0,11.703185684592045,745,2
25-55.png,7-147.png,dd,up,25-55_mask.png,0.6998309999908088,1,11.703185684592045,746,2
20-13F.png,20-13F.png,ss,inv,20-13F_mask.png,0.623280200001318,1,11.703185684592045,747,1
135-103F.png,197-192F.png,dd,inv,135-103F_mask.png,0.8298199999990175,1,11.703185684592045,748,2
13-225F.png,96-225F.png,ds,up,13-225F_mask.png,0.7801275999954669,1,11.703185684592045,749,1
2_eyes.png,2_eyes.png,isos,up,2_eyes_mask.png,0.564851599992835,1,12.637577710370472,750,1
8_eyes.png,8_eyes.png,isos,inv,8_eyes_mask.png,0.6701628000009805,1,23.36370892508618,751,2
96_eyes.png,30_eyes.png,isod,inv,96_eyes_mask.png,0.6433385999989696,1,31.636252618780404,752,2
147_eyes.png,147_eyes.png,isos,inv,147_eyes_mask.png,0.5213405999966199,1,21.703185684592043,753,1
125-9.png,125-9.png,ss,up,125-9_mask.png,0.49994860000151675,1,21.703185684592043,754,1
129-37F.png,129-94F.png,sd,up,129-37F_mask.png,0.5192661999899428,0,21.703185684592043,755,1
65-20F.png,41-20F.png,ds,up,65-20F_mask.png,0.5698040000133915,1,21.703185684592043,756,2
125-38.png,125-9.png,sd,inv,125-38_mask.png,0.9148412000067765,1,21.703185684592043,757,1
131-37F.png,129-37F.png,ds,up,131-37F_mask.png,0.5816327999928035,1,21.703185684592043,758,1
151-87.png,49-87.png,ds,inv,151-87_mask.png,0.5820231000107015,1,21.703185684592043,759,1
135-192F.png,135-192F.png,ss,inv,135-192F_mask.png,0.7980175999982748,1,21.703185684592043,760,2
7-55.png,25-55.png,ds,inv,7-55_mask.png,0.7814591000060318,1,21.703185684592043,761,2
93_eyes.png,93_eyes.png,isos,up,93_eyes_mask.png,0.4382785000052536,1,12.637577710370472,762,1
20-13F.png,20-13F.png,ss,up,20-13F_mask.png,0.46830549999140203,1,12.637577710370472,763,2
160-76.png,160-76.png,ss,inv,160-76_mask.png,0.48080449999542907,1,12.637577710370472,764,2
192-216F.png,111-216F.png,ds,up,192-216F_mask.png,0.4931921999959741,0,12.637577710370472,765,2
96_eyes.png,30_eyes.png,isod,up,96_eyes_mask.png,0.6412769999878947,1,22.637577710370472,766,1
2-93.png,46-93.png,ds,inv,2-93_mask.png,0.9829502999928081,1,22.637577710370472,767,2
