im1name,im2name,cond,ori,mask,rt,acc,contrast,trialno,staircase
66_eyes.png,66_eyes.png,isos,up,66_eyes_mask.png,1.2877357999968808,1,10.837880352311993,0,2
192_eyes.png,103_eyes.png,isod,inv,192_eyes_mask.png,0.7636120999814011,1,10.837880352311993,1,2
2-8.png,46-93.png,dd,up,2-8_mask.png,0.6682294999773148,1,10.837880352311993,2,2
225_eyes.png,225_eyes.png,isos,inv,225_eyes_mask.png,0.9130525999935344,1,10.837880352311993,3,1
128-30F.png,225-30F.png,ds,inv,128-30F_mask.png,0.9955568000150379,1,10.837880352311993,4,2
208-65F.png,20-65F.png,ds,up,208-65F_mask.png,1.9952111000020523,0,10.837880352311993,5,1
128-96F.png,128-30F.png,sd,up,128-96F_mask.png,0.9403773999947589,0,10.837880352311993,6,2
96_eyes.png,30_eyes.png,isod,up,96_eyes_mask.png,0.8619094000023324,1,8.607263960508302,7,2
147_eyes.png,55_eyes.png,isod,up,147_eyes_mask.png,1.0785862000193447,1,6.8357455957761015,8,2
103-197F.png,103-135F.png,sd,up,103-197F_mask.png,0.8505562999926042,0,17.183151257649243,9,1
111-216F.png,111-216F.png,ss,inv,111-216F_mask.png,0.9999168000067584,1,10.837880352311993,10,2
111-220F.png,111-216F.png,sd,inv,111-220F_mask.png,1.0312252000148874,0,8.607263960508302,11,2
37_eyes.png,37_eyes.png,isos,inv,37_eyes_mask.png,0.869758599990746,1,8.607263960508302,12,2
160-76.png,160-76.png,ss,up,160-76_mask.png,0.7941676000191364,1,8.607263960508302,13,2
2-8.png,2-8.png,ss,up,2-8_mask.png,0.8975622999714687,1,10.837880352311993,14,1
129-37F.png,131-94F.png,dd,up,129-37F_mask.png,1.0066136000095867,1,8.607263960508302,15,1
111-220F.png,111-220F.png,ss,inv,111-220F_mask.png,1.165580200002296,1,8.607263960508302,16,2
208-65F.png,20-13F.png,dd,up,208-65F_mask.png,1.1098870999994688,1,6.8357455957761015,17,2
65-20F.png,41-208F.png,dd,inv,65-20F_mask.png,1.1605726999987382,0,10.837880352311993,18,1
135_eyes.png,135_eyes.png,isos,up,135_eyes_mask.png,0.6657228999829385,1,10.837880352311993,19,1
65-208F.png,65-20F.png,sd,inv,65-208F_mask.png,0.9342613999906462,0,10.837880352311993,20,1
7-147.png,7-55.png,sd,inv,7-147_mask.png,1.3359742000175174,0,13.646572368403794,21,2
8_eyes.png,8_eyes.png,isos,up,8_eyes_mask.png,1.690091600001324,1,8.607263960508302,22,1
46-93.png,2-93.png,ds,up,46-93_mask.png,1.3897659000067506,0,17.183151257649243,23,2
93_eyes.png,8_eyes.png,isod,up,93_eyes_mask.png,0.7655940999975428,1,6.8357455957761015,24,1
128-30F.png,128-30F.png,ss,up,128-30F_mask.png,1.3663703999773134,1,5.862277928868478,25,2
111-220F.png,192-220F.png,ds,up,111-220F_mask.png,1.1910534000198822,0,21.636252618780404,26,1
100_eyes.png,125_eyes.png,isod,inv,100_eyes_mask.png,0.8147034000139683,1,6.8357455957761015,27,2
192_eyes.png,103_eyes.png,isod,inv,192_eyes_mask.png,0.7982321000017691,1,8.607263960508302,28,1
192-220F.png,192-216F.png,sd,inv,192-220F_mask.png,0.9497019999835175,0,17.183151257649243,29,1
128_eyes.png,128_eyes.png,isos,inv,128_eyes_mask.png,1.8869097999995574,1,6.8357455957761015,30,1
25-55.png,25-147.png,sd,up,25-55_mask.png,1.3225551999930758,1,21.636252618780404,31,2
20_eyes.png,20_eyes.png,isos,inv,20_eyes_mask.png,0.8371973999892361,0,5.862277928868478,32,2
147-7.png,146-7.png,ds,inv,147-7_mask.png,0.8673859999980778,1,21.636252618780404,33,1
30_eyes.png,96_eyes.png,isod,inv,30_eyes_mask.png,1.272237800003495,1,5.862277928868478,34,1
93_eyes.png,8_eyes.png,isod,up,93_eyes_mask.png,0.8129018000036012,1,5.862277928868478,35,1
46-93.png,46-93.png,ss,inv,46-93_mask.png,0.9000948999891989,1,17.183151257649243,36,1
146-7.png,147-25.png,dd,inv,146-7_mask.png,1.9181106000032742,1,6.8357455957761015,37,2
52-66.png,145-66.png,ds,inv,52-66_mask.png,1.0402480000047944,1,20.036520266739068,38,1
129-37F.png,131-37F.png,ds,inv,129-37F_mask.png,0.8956799000152387,1,18.555068267735685,39,2
49-146.png,151-87.png,dd,up,49-146_mask.png,0.8032450999889988,1,6.8357455957761015,40,1
17-9.png,17-9.png,ss,inv,17-9_mask.png,0.7866717000142671,1,15.9126704834961,41,1
139-135F.png,103-197F.png,dd,inv,139-135F_mask.png,1.658863199991174,0,5.862277928868478,42,2
160-2.png,24-2.png,ds,up,160-2_mask.png,1.5353271999920253,0,20.036520266739068,43,2
135-192F.png,197-103F.png,dd,inv,135-192F_mask.png,1.4969798999954946,1,13.646572368403794,44,1
147-25.png,147-7.png,sd,up,147-25_mask.png,2.3487005999777466,0,23.36370892508618,45,1
197-103F.png,197-103F.png,ss,up,197-103F_mask.png,0.9981192999985069,1,5.862277928868478,46,1
220_eyes.png,220_eyes.png,isos,up,220_eyes_mask.png,0.6296385999885388,0,5.862277928868478,47,2
160-76.png,24-76.png,ds,inv,160-76_mask.png,0.6737872999801766,1,17.183151257649243,48,2
111-220F.png,192-220F.png,ds,inv,111-220F_mask.png,0.6487699999997858,1,15.9126704834961,49,2
192_eyes.png,192_eyes.png,isos,inv,192_eyes_mask.png,0.606266200018581,1,9.294475034930333,50,2
103-197F.png,139-135F.png,dd,up,103-197F_mask.png,0.8615547000081278,1,5.0274402453675116,51,1
103-135F.png,103-197F.png,sd,inv,103-135F_mask.png,2.018710000003921,1,15.9126704834961,52,2
111-216F.png,111-220F.png,sd,up,111-216F_mask.png,0.785403200017754,1,21.636252618780404,53,2
13-225F.png,13-128F.png,sd,up,13-225F_mask.png,0.7381103000079747,1,23.36370892508618,54,1
100_eyes.png,125_eyes.png,isod,up,100_eyes_mask.png,0.75640869999188,1,9.294475034930333,55,2
123-125.png,123-100.png,sd,up,123-125_mask.png,2.9331798999919556,1,23.36370892508618,56,1
147_eyes.png,147_eyes.png,isos,up,147_eyes_mask.png,2.2712930999987293,0,8.607263960508302,57,2
94_eyes.png,37_eyes.png,isod,inv,94_eyes_mask.png,0.956070100015495,1,5.0274402453675116,58,1
129-94F.png,131-94F.png,ds,up,129-94F_mask.png,0.6212507000018377,1,21.636252618780404,59,2
208-13F.png,208-13F.png,ss,up,208-13F_mask.png,0.8920404000091366,1,5.0274402453675116,60,2
139-135F.png,139-135F.png,ss,up,139-135F_mask.png,0.7056591000000481,1,4.655723435152049,61,1
20_eyes.png,208_eyes.png,isod,up,20_eyes_mask.png,2.2213138000224717,1,5.0274402453675116,62,1
46-8.png,46-8.png,ss,inv,46-8_mask.png,1.4360995000170078,1,12.637577710370472,63,1
93_eyes.png,93_eyes.png,isos,up,93_eyes_mask.png,2.4264314000029117,0,4.655723435152049,64,1
225-96F.png,128-96F.png,ds,up,225-96F_mask.png,0.9447215999825858,1,23.36370892508618,65,1
128-30F.png,225-96F.png,dd,up,128-30F_mask.png,1.3383952000003774,1,4.655723435152049,66,2
87_eyes.png,146_eyes.png,isod,inv,87_eyes_mask.png,4.092457099992316,0,8.607263960508302,67,2
52-148.png,52-148.png,ss,up,52-148_mask.png,1.1276583999861032,1,4.311490469647435,68,2
24-2.png,160-2.png,ds,up,24-2_mask.png,1.153937000024598,1,30.36370892508618,69,1
125-9.png,17-9.png,ds,up,125-9_mask.png,1.1394244999974035,1,21.636252618780404,70,2
208-65F.png,20-13F.png,dd,inv,208-65F_mask.png,1.6693375000031665,1,12.637577710370472,71,1
123-100.png,44-125.png,dd,up,123-100_mask.png,0.7379141999990679,1,10.992709259641316,72,2
147-25.png,147-7.png,sd,inv,147-25_mask.png,2.1719825999753084,1,20.646572368403795,73,2
125-9.png,125-9.png,ss,inv,125-9_mask.png,0.9727650000131689,1,9.294475034930333,74,2
125-9.png,17-38.png,dd,up,125-9_mask.png,1.6452946999925189,1,4.311490469647435,75,1
151-87.png,49-146.png,dd,inv,151-87_mask.png,0.8589296999853104,1,8.607263960508302,76,2
93_eyes.png,93_eyes.png,isos,up,93_eyes_mask.png,1.1202436999883503,1,6.8357455957761015,77,1
145-66.png,52-148.png,dd,inv,145-66_mask.png,1.4029949999821838,0,7.381517178581321,78,2
197_eyes.png,135_eyes.png,isod,up,197_eyes_mask.png,0.8102792999998201,1,12.637577710370472,79,2
38_eyes.png,9_eyes.png,isod,up,38_eyes_mask.png,0.7224379999970552,1,12.862277928868478,80,1
139-135F.png,103-135F.png,ds,inv,139-135F_mask.png,0.7649288999964483,1,20.036520266739068,81,1
7-147.png,7-55.png,sd,up,7-147_mask.png,1.1499792000104208,0,28.636252618780404,82,2
52-66.png,52-66.png,ss,up,52-66_mask.png,0.871322599996347,1,10.992709259641316,83,1
197-103F.png,135-192F.png,dd,inv,197-103F_mask.png,1.1000794999999925,1,10.036553609986138,84,1
55_eyes.png,147_eyes.png,isod,inv,55_eyes_mask.png,1.1837646000203677,0,12.637577710370472,85,2
128-96F.png,128-96F.png,ss,inv,128-96F_mask.png,0.8396473999891896,1,16.294475034930333,86,1
131-37F.png,129-37F.png,ds,inv,131-37F_mask.png,0.6693592000228819,1,17.183151257649243,87,1
135-103F.png,135-192F.png,sd,inv,135-103F_mask.png,0.7549546000082046,0,17.183151257649243,88,1
197_eyes.png,197_eyes.png,isos,inv,197_eyes_mask.png,0.708640099997865,1,24.183151257649243,89,2
25_eyes.png,25_eyes.png,isos,inv,25_eyes_mask.png,1.847573300008662,1,4.655723435152049,90,1
146_eyes.png,146_eyes.png,isos,inv,146_eyes_mask.png,1.063364100002218,0,4.311490469647435,91,1
20_eyes.png,208_eyes.png,isod,inv,20_eyes_mask.png,0.9651585000101477,1,12.862277928868478,92,1
100_eyes.png,100_eyes.png,isos,up,100_eyes_mask.png,0.7661440999945626,1,17.83788035231199,93,2
151-87.png,151-87.png,ss,inv,151-87_mask.png,1.7103658000123687,1,17.036553609986136,94,2
225-96F.png,225-30F.png,sd,inv,225-96F_mask.png,1.6413125999970362,0,27.036520266739068,95,1
220_eyes.png,220_eyes.png,isos,up,220_eyes_mask.png,1.416513300006045,0,5.862277928868478,96,1
13-128F.png,13-225F.png,sd,up,13-128F_mask.png,0.6306008000101428,0,21.636252618780404,97,2
37_eyes.png,94_eyes.png,isod,up,37_eyes_mask.png,0.8528828000125941,1,10.837880352311993,98,2
41-208F.png,65-20F.png,dd,up,41-208F_mask.png,2.7703888999822084,1,3.992709259641317,99,1
55_eyes.png,55_eyes.png,isos,inv,55_eyes_mask.png,0.5548682000080589,1,17.183151257649243,100,2
87_eyes.png,146_eyes.png,isod,up,87_eyes_mask.png,0.9087296999932732,1,7.970863616012756,101,1
146_eyes.png,146_eyes.png,isos,up,146_eyes_mask.png,0.7307525999785867,1,10.036553609986138,102,2
30_eyes.png,30_eyes.png,isos,inv,30_eyes_mask.png,1.581394500011811,0,5.862277928868478,103,1
123-100.png,44-100.png,ds,up,123-100_mask.png,2.221676099987235,1,21.636252618780404,104,2
9_eyes.png,38_eyes.png,isod,inv,9_eyes_mask.png,0.7242626999795903,1,15.9126704834961,105,2
93_eyes.png,93_eyes.png,isos,inv,93_eyes_mask.png,0.8960726000077557,1,15.9126704834961,106,2
41-208F.png,41-20F.png,sd,inv,41-208F_mask.png,1.2836730999988504,0,13.646572368403794,107,2
103-197F.png,103-135F.png,sd,inv,103-197F_mask.png,3.344968399993377,0,15.9126704834961,108,2
24-2.png,24-2.png,ss,inv,24-2_mask.png,0.6907601999992039,0,10.036553609986138,109,2
131-94F.png,129-37F.png,dd,up,131-94F_mask.png,1.310167099989485,1,3.992709259641317,110,2
145-66.png,52-66.png,ds,inv,145-66_mask.png,1.6094496000150684,0,18.555068267735685,111,2
87_eyes.png,87_eyes.png,isos,up,87_eyes_mask.png,0.6885845999931917,1,9.294475034930333,112,2
135-103F.png,197-192F.png,dd,inv,135-103F_mask.png,1.0285575999878347,1,9.294475034930333,113,1
111-216F.png,192-216F.png,ds,inv,111-216F_mask.png,1.0110628999827895,1,21.636252618780404,114,2
9_eyes.png,38_eyes.png,isod,up,9_eyes_mask.png,0.9864697000011802,1,7.970863616012756,115,2
96-225F.png,13-225F.png,ds,up,96-225F_mask.png,2.937930799991591,1,23.36370892508618,116,1
135_eyes.png,197_eyes.png,isod,up,135_eyes_mask.png,0.6202020999917295,1,7.381517178581321,117,1
225_eyes.png,128_eyes.png,isod,inv,225_eyes_mask.png,0.8192316000058781,1,8.607263960508302,118,1
96-128F.png,96-128F.png,ss,up,96-128F_mask.png,0.8820071000081953,1,3.6974979636981815,119,1
135-192F.png,197-192F.png,ds,inv,135-192F_mask.png,0.7258545000222512,1,20.036520266739068,120,1
131-94F.png,131-37F.png,sd,inv,131-94F_mask.png,0.6073622000112664,0,20.036520266739068,121,1
139-135F.png,139-135F.png,ss,inv,139-135F_mask.png,1.1104638999968302,1,8.607263960508302,122,1
96-225F.png,13-128F.png,dd,inv,96-225F_mask.png,0.6024121999798808,0,13.646572368403794,123,2
160-2.png,160-76.png,sd,inv,160-2_mask.png,0.8416565999796148,1,21.636252618780404,124,1
24-76.png,24-2.png,sd,up,24-76_mask.png,1.0794498000177555,1,23.36370892508618,125,1
139-197F.png,139-197F.png,ss,inv,139-197F_mask.png,0.7233473000233062,1,7.381517178581321,126,1
20-65F.png,208-13F.png,dd,up,20-65F_mask.png,1.3818501000059769,1,3.4241138792010055,127,1
125-38.png,17-38.png,ds,up,125-38_mask.png,1.053955900017172,1,23.36370892508618,128,1
46-8.png,2-93.png,dd,up,46-8_mask.png,0.9152369000075851,1,3.6974979636981815,129,2
160-2.png,160-2.png,ss,up,160-2_mask.png,2.111376899993047,1,3.4241138792010055,130,2
129-37F.png,129-37F.png,ss,up,129-37F_mask.png,1.0103926000010688,1,3.4241138792010055,131,2
208-65F.png,208-65F.png,ss,inv,208-65F_mask.png,0.8013020000071265,1,18.555068267735685,132,2
131-94F.png,129-94F.png,ds,up,131-94F_mask.png,0.6727067999891005,1,21.636252618780404,133,2
100_eyes.png,125_eyes.png,isod,inv,100_eyes_mask.png,0.7738434000057168,1,13.646572368403794,134,2
129-94F.png,131-37F.png,dd,inv,129-94F_mask.png,1.0539709999866318,0,5.862277928868478,135,1
225-96F.png,225-30F.png,sd,up,225-96F_mask.png,0.6512307999946643,1,21.636252618780404,136,1
100_eyes.png,100_eyes.png,isos,inv,100_eyes_mask.png,0.824883100023726,1,7.381517178581321,137,1
197-103F.png,197-192F.png,sd,up,197-103F_mask.png,0.9114414999785367,0,21.636252618780404,138,2
146_eyes.png,87_eyes.png,isod,inv,146_eyes_mask.png,0.7061950000061188,1,6.8357455957761015,139,1
49-87.png,151-87.png,ds,inv,49-87_mask.png,1.7413651999959257,1,21.636252618780404,140,1
139-197F.png,103-135F.png,dd,inv,139-197F_mask.png,0.5429742999840528,0,17.183151257649243,141,2
96_eyes.png,96_eyes.png,isos,up,96_eyes_mask.png,1.0085289999842644,1,6.8357455957761015,142,1
103-135F.png,103-135F.png,ss,up,103-135F_mask.png,0.9436578000022564,1,3.4241138792010055,143,1
135-103F.png,135-103F.png,ss,inv,135-103F_mask.png,0.6688502999895718,1,20.036520266739068,144,2
44-125.png,44-100.png,sd,inv,44-125_mask.png,0.9694811999797821,1,21.636252618780404,145,2
145-66.png,145-66.png,ss,inv,145-66_mask.png,0.7221468999923673,1,20.036520266739068,146,2
216_eyes.png,220_eyes.png,isod,inv,216_eyes_mask.png,0.7970252000086475,1,6.330327047908198,147,1
151-87.png,49-87.png,ds,up,151-87_mask.png,0.7965347999997903,0,23.36370892508618,148,2
145-148.png,145-148.png,ss,up,145-148_mask.png,0.6843386999971699,1,3.170943154762479,149,2
135-192F.png,135-192F.png,ss,up,135-192F_mask.png,0.6546203999896534,1,3.170943154762479,150,1
225-96F.png,225-96F.png,ss,inv,225-96F_mask.png,1.251832399982959,1,9.294475034930333,151,1
128_eyes.png,128_eyes.png,isos,up,128_eyes_mask.png,0.7455163999984507,1,7.970863616012756,152,2
52-66.png,52-148.png,sd,inv,52-66_mask.png,0.6834163000166882,1,20.036520266739068,153,1
37_eyes.png,37_eyes.png,isos,up,37_eyes_mask.png,0.7272895000060089,1,7.381517178581321,154,2
197-192F.png,135-192F.png,ds,inv,197-192F_mask.png,1.4011243000277318,0,20.036520266739068,155,1
123-125.png,44-100.png,dd,up,123-125_mask.png,0.8566502000030596,1,3.170943154762479,156,1
128_eyes.png,225_eyes.png,isod,inv,128_eyes_mask.png,0.8143703999812715,1,12.637577710370472,157,2
49-146.png,151-146.png,ds,up,49-146_mask.png,0.829323599988129,0,23.36370892508618,158,2
131-94F.png,129-94F.png,ds,inv,131-94F_mask.png,0.7234836000134237,1,21.636252618780404,159,1
25_eyes.png,25_eyes.png,isos,up,25_eyes_mask.png,2.6938441999955103,1,6.330327047908198,160,1
151-146.png,49-87.png,dd,up,151-146_mask.png,2.04143149999436,1,3.170943154762479,161,2
123-125.png,123-125.png,ss,up,123-125_mask.png,1.137545700010378,1,2.9364912632757605,162,2
103_eyes.png,192_eyes.png,isod,up,103_eyes_mask.png,0.8839149999839719,1,5.862277928868478,163,1
87_eyes.png,87_eyes.png,isos,inv,87_eyes_mask.png,0.6963794999755919,1,11.703185684592045,164,2
111-216F.png,111-220F.png,sd,inv,111-216F_mask.png,0.8198652999999467,1,20.036520266739068,165,2
2_eyes.png,76_eyes.png,isod,up,2_eyes_mask.png,1.9621722000010777,1,6.8357455957761015,166,2
128-30F.png,225-30F.png,ds,up,128-30F_mask.png,1.186628399998881,0,21.636252618780404,167,1
146-25.png,147-25.png,ds,up,146-25_mask.png,1.7141064000024926,1,23.36370892508618,168,1
125_eyes.png,100_eyes.png,isod,inv,125_eyes_mask.png,0.5974806000012904,1,10.837880352311993,169,2
25_eyes.png,25_eyes.png,isos,inv,25_eyes_mask.png,0.9019543000031263,0,5.862277928868478,170,1
17-9.png,125-38.png,dd,inv,17-9_mask.png,1.8732561000215355,0,8.607263960508302,171,1
7_eyes.png,25_eyes.png,isod,up,7_eyes_mask.png,4.333896299998742,1,0.01,172,2
125_eyes.png,125_eyes.png,isos,up,125_eyes_mask.png,2.0881150999921374,0,5.428835233189813,173,1
103-197F.png,103-197F.png,ss,up,103-197F_mask.png,1.1562624000071082,1,2.9364912632757605,174,1
131-37F.png,129-94F.png,dd,up,131-37F_mask.png,0.9308358999842312,1,0.01,175,2
208-13F.png,208-65F.png,sd,up,208-13F_mask.png,0.9092230999958701,1,23.36370892508618,176,2
128-96F.png,225-30F.png,dd,inv,128-96F_mask.png,1.600090399995679,0,20.036520266739068,177,2
13-128F.png,13-225F.png,sd,inv,13-128F_mask.png,2.759430100006284,0,14.636252618780404,178,1
13_eyes.png,65_eyes.png,isod,inv,13_eyes_mask.png,0.6086389999836683,1,7.381517178581321,179,1
160-2.png,24-76.png,dd,inv,160-2_mask.png,1.6795708000136074,0,14.636252618780404,180,2
145-148.png,145-66.png,sd,up,145-148_mask.png,1.4838363000017125,1,23.36370892508618,181,1
96-225F.png,13-128F.png,dd,up,96-225F_mask.png,1.6078041000000667,1,0.01,182,1
37_eyes.png,37_eyes.png,isos,inv,37_eyes_mask.png,2.351295200001914,0,0.01,183,1
17-38.png,17-9.png,sd,up,17-38_mask.png,5.6481401000055484,0,14.636252618780404,184,1
192-220F.png,192-216F.png,sd,up,192-220F_mask.png,0.7578735999995843,1,16.36370892508618,185,2
13-225F.png,96-225F.png,ds,inv,13-225F_mask.png,1.2954572000016924,1,18.555068267735685,186,2
49-146.png,151-87.png,dd,inv,49-146_mask.png,1.5865764000045601,1,10.837880352311993,187,1
13-225F.png,13-225F.png,ss,inv,13-225F_mask.png,0.6839920000056736,1,3.0365536099861377,188,1
44-125.png,123-125.png,ds,inv,44-125_mask.png,0.8718855999759398,1,11.555068267735685,189,2
25_eyes.png,7_eyes.png,isod,up,25_eyes_mask.png,1.9569629000034183,0,0.01,190,1
65_eyes.png,65_eyes.png,isos,inv,65_eyes_mask.png,3.8537204999884125,0,3.837880352311993,191,2
151-87.png,49-146.png,dd,up,151-87_mask.png,1.7739515000139363,0,2.9364912632757605,192,1
160-76.png,24-2.png,dd,up,160-76_mask.png,3.7738890000036918,0,2.9364912632757605,193,2
38_eyes.png,38_eyes.png,isos,inv,38_eyes_mask.png,0.9096127000229899,1,10.837880352311993,194,2
38_eyes.png,38_eyes.png,isos,inv,38_eyes_mask.png,1.115159799985122,1,6.8357455957761015,195,1
123-100.png,44-100.png,ds,inv,123-100_mask.png,0.6698900999908801,1,21.636252618780404,196,1
146_eyes.png,146_eyes.png,isos,up,146_eyes_mask.png,1.3464196000131778,0,6.330327047908198,197,1
129-37F.png,129-94F.png,sd,inv,129-37F_mask.png,2.236218199977884,0,21.636252618780404,198,1
65-20F.png,41-20F.png,ds,inv,65-20F_mask.png,0.6773170999949798,1,18.555068267735685,199,2
20-65F.png,20-65F.png,ss,inv,20-65F_mask.png,0.5214401999837719,1,21.636252618780404,200,2
8_eyes.png,93_eyes.png,isod,up,8_eyes_mask.png,0.6205734000250231,1,6.8357455957761015,201,2
135-192F.png,135-103F.png,sd,inv,135-192F_mask.png,0.8992900000012014,1,17.183151257649243,202,2
135-103F.png,135-192F.png,sd,up,135-103F_mask.png,0.6945851999917068,1,21.636252618780404,203,1
125_eyes.png,125_eyes.png,isos,up,125_eyes_mask.png,2.4186036000028253,1,5.862277928868478,204,2
135-103F.png,197-192F.png,dd,up,135-103F_mask.png,0.8491981999832205,1,3.170943154762479,205,1
66_eyes.png,148_eyes.png,isod,up,66_eyes_mask.png,0.7264248999999836,1,7.970863616012756,206,1
128-30F.png,128-96F.png,sd,up,128-30F_mask.png,0.8009813000098802,0,21.636252618780404,207,1
94_eyes.png,37_eyes.png,isod,up,94_eyes_mask.png,0.7682493999891449,1,7.381517178581321,208,1
8_eyes.png,8_eyes.png,isos,up,8_eyes_mask.png,1.2018721000058576,0,5.428835233189813,209,2
125-38.png,17-9.png,dd,inv,125-38_mask.png,0.8812318999844138,0,10.036553609986138,210,1
145-148.png,52-148.png,ds,inv,145-148_mask.png,1.8613905000092927,1,17.183151257649243,211,2
25_eyes.png,7_eyes.png,isod,inv,25_eyes_mask.png,0.8829106999910437,1,10.036553609986138,212,2
7-147.png,7-147.png,ss,up,7-147_mask.png,1.1028591000067536,1,3.170943154762479,213,2
2_eyes.png,76_eyes.png,isod,inv,2_eyes_mask.png,0.8665536000044085,1,6.330327047908198,214,1
145-148.png,52-148.png,ds,up,145-148_mask.png,0.7271925999957602,0,23.36370892508618,215,2
145-66.png,52-66.png,ds,up,145-66_mask.png,0.976075500017032,0,23.36370892508618,216,2
103_eyes.png,192_eyes.png,isod,inv,103_eyes_mask.png,1.0804554999922402,1,5.862277928868478,217,1
25-55.png,25-147.png,sd,inv,25-55_mask.png,0.6448072000057437,0,17.183151257649243,218,2
13-225F.png,96-128F.png,dd,inv,13-225F_mask.png,1.1866041999892332,1,21.636252618780404,219,2
13-225F.png,13-225F.png,ss,up,13-225F_mask.png,2.458376099995803,0,3.170943154762479,220,1
125-9.png,125-9.png,ss,up,125-9_mask.png,0.8564196000224911,1,3.170943154762479,221,2
128_eyes.png,128_eyes.png,isos,inv,128_eyes_mask.png,0.918180000007851,1,8.607263960508302,222,2
129-94F.png,129-37F.png,sd,up,129-94F_mask.png,0.9134213000070304,0,23.36370892508618,223,2
147-25.png,147-25.png,ss,up,147-25_mask.png,0.9637587999750394,1,3.4241138792010055,224,1
37_eyes.png,94_eyes.png,isod,up,37_eyes_mask.png,1.4612159999960568,1,6.8357455957761015,225,2
146-25.png,146-25.png,ss,inv,146-25_mask.png,0.6901001000078395,1,12.637577710370472,226,1
128-30F.png,128-96F.png,sd,inv,128-30F_mask.png,1.5895397999847773,1,21.636252618780404,227,1
20-13F.png,20-13F.png,ss,inv,20-13F_mask.png,0.6134423999756109,1,20.036520266739068,228,2
13_eyes.png,13_eyes.png,isos,up,13_eyes_mask.png,0.7807955000025686,1,6.8357455957761015,229,1
13_eyes.png,13_eyes.png,isos,inv,13_eyes_mask.png,1.5331952999986243,0,5.862277928868478,230,1
96-128F.png,96-225F.png,sd,up,96-128F_mask.png,0.7510311999940313,1,25.229086771816444,231,2
192-220F.png,111-216F.png,dd,inv,192-220F_mask.png,0.8405231999931857,1,20.036520266739068,232,2
49-87.png,151-146.png,dd,up,49-87_mask.png,3.4220433000009507,0,2.9364912632757605,233,2
7-147.png,25-147.png,ds,up,7-147_mask.png,1.9246675999893341,0,23.36370892508618,234,1
20-65F.png,208-65F.png,ds,up,20-65F_mask.png,2.3755160000000615,1,23.36370892508618,235,1
8_eyes.png,93_eyes.png,isod,inv,8_eyes_mask.png,0.712097099982202,1,7.970863616012756,236,2
49-146.png,49-146.png,ss,inv,49-146_mask.png,0.8032583000021987,1,11.703185684592045,237,1
20-13F.png,208-13F.png,ds,inv,20-13F_mask.png,0.6025000000081491,1,21.636252618780404,238,1
225-30F.png,128-96F.png,dd,inv,225-30F_mask.png,1.1453833999985363,1,11.703185684592045,239,1
103_eyes.png,103_eyes.png,isos,inv,103_eyes_mask.png,1.181998999993084,0,6.8357455957761015,240,1
49-87.png,49-87.png,ss,up,49-87_mask.png,0.6220438999880571,1,3.170943154762479,241,2
65-208F.png,41-208F.png,ds,inv,65-208F_mask.png,0.8847081999992952,1,21.636252618780404,242,1
197-192F.png,135-103F.png,dd,inv,197-192F_mask.png,0.808684199990239,0,10.837880352311993,243,1
146_eyes.png,87_eyes.png,isod,up,146_eyes_mask.png,0.7281688000075519,1,6.8357455957761015,244,1
17-9.png,125-38.png,dd,up,17-9_mask.png,1.1145089000056032,0,3.170943154762479,245,1
55_eyes.png,147_eyes.png,isod,up,55_eyes_mask.png,0.7413853000034578,1,6.8357455957761015,246,2
13-225F.png,96-225F.png,ds,up,13-225F_mask.png,0.8152232000138611,1,25.229086771816444,247,2
44-125.png,44-100.png,sd,up,44-125_mask.png,0.7753609000064898,1,25.229086771816444,248,2
20-13F.png,20-65F.png,sd,inv,20-13F_mask.png,0.9197543000045698,1,18.555068267735685,249,2
145-148.png,52-66.png,dd,up,145-148_mask.png,1.474358499981463,0,3.170943154762479,250,2
25-55.png,25-55.png,ss,inv,25-55_mask.png,1.6226019999885466,1,18.555068267735685,251,2
128_eyes.png,128_eyes.png,isos,up,128_eyes_mask.png,1.5816831999982242,0,6.330327047908198,252,2
24-76.png,160-76.png,ds,inv,24-76_mask.png,0.6461891999933869,1,17.183151257649243,253,2
208-65F.png,208-13F.png,sd,up,208-65F_mask.png,0.7478437999961898,0,23.36370892508618,254,1
103-135F.png,103-135F.png,ss,inv,103-135F_mask.png,0.5895030000247061,1,18.555068267735685,255,2
30_eyes.png,30_eyes.png,isos,up,30_eyes_mask.png,0.8696274000103585,0,7.381517178581321,256,2
52-66.png,145-66.png,ds,up,52-66_mask.png,0.7464138000214007,0,23.36370892508618,257,1
30_eyes.png,96_eyes.png,isod,up,30_eyes_mask.png,0.9483056000026409,1,6.330327047908198,258,1
9_eyes.png,9_eyes.png,isos,inv,9_eyes_mask.png,2.878376299981028,0,7.970863616012756,259,2
135-192F.png,135-192F.png,ss,inv,135-192F_mask.png,0.7546319999964908,1,11.703185684592045,260,1
208-13F.png,20-13F.png,ds,up,208-13F_mask.png,1.667807099991478,1,23.36370892508618,261,1
123-125.png,123-100.png,sd,inv,123-125_mask.png,1.8003011999826413,1,21.636252618780404,262,1
197-192F.png,197-192F.png,ss,up,197-192F_mask.png,0.7598137999884784,1,3.6974979636981815,263,1
49-87.png,49-146.png,sd,inv,49-87_mask.png,0.8488078000082169,1,17.183151257649243,264,2
147-7.png,147-7.png,ss,up,147-7_mask.png,0.7821234999864828,1,3.4241138792010055,265,1
192_eyes.png,192_eyes.png,isos,up,192_eyes_mask.png,1.3181792999967001,1,6.330327047908198,266,1
7_eyes.png,7_eyes.png,isos,inv,7_eyes_mask.png,1.4730518000142183,1,9.294475034930333,267,2
65-20F.png,65-208F.png,sd,up,65-20F_mask.png,0.6777173000155017,0,23.36370892508618,268,2
123-125.png,123-125.png,ss,inv,123-125_mask.png,0.8343965999956708,1,11.703185684592045,269,1
103_eyes.png,192_eyes.png,isod,inv,103_eyes_mask.png,0.7844951000006404,1,7.970863616012756,270,1
46-8.png,46-8.png,ss,up,46-8_mask.png,0.8317041000118479,0,3.4241138792010055,271,2
20_eyes.png,20_eyes.png,isos,up,20_eyes_mask.png,0.5103917999949772,1,12.862277928868478,272,1
147-7.png,146-7.png,ds,up,147-7_mask.png,0.6413873999845237,0,32.22908677181644,273,2
148_eyes.png,66_eyes.png,isod,inv,148_eyes_mask.png,1.247184500010917,1,9.294475034930333,274,2
65-20F.png,41-208F.png,dd,up,65-20F_mask.png,1.036825699993642,0,10.424113879201006,275,1
146-25.png,147-25.png,ds,inv,146-25_mask.png,0.706680300005246,1,24.183151257649243,276,2
49-146.png,49-87.png,sd,inv,49-146_mask.png,0.6460203000169713,0,21.636252618780404,277,1
111-216F.png,192-220F.png,dd,up,111-216F_mask.png,0.6117880999809131,1,10.992709259641316,278,2
25-147.png,7-147.png,ds,inv,25-147_mask.png,0.5626290999935009,1,28.636252618780404,279,1
76_eyes.png,2_eyes.png,isod,up,76_eyes_mask.png,0.7639868000114802,0,14.970863616012757,280,2
125_eyes.png,100_eyes.png,isod,inv,125_eyes_mask.png,0.9013959000003524,0,15.607263960508302,281,2
96_eyes.png,30_eyes.png,isod,inv,96_eyes_mask.png,1.2651323000027332,1,7.381517178581321,282,1
125_eyes.png,125_eyes.png,isos,inv,125_eyes_mask.png,0.9118842000025325,1,13.835745595776102,283,1
123-100.png,44-125.png,dd,inv,123-100_mask.png,1.4826332000084221,1,18.703185684592043,284,1
52-66.png,52-148.png,sd,up,52-66_mask.png,0.8706819000071846,0,30.36370892508618,285,1
131-37F.png,129-94F.png,dd,inv,131-37F_mask.png,0.8432730999775231,1,17.183151257649243,286,2
24-76.png,160-2.png,dd,inv,24-76_mask.png,0.6429567000013776,0,24.183151257649243,287,2
148_eyes.png,66_eyes.png,isod,up,148_eyes_mask.png,0.6341518999834079,1,5.862277928868478,288,1
2-93.png,46-93.png,ds,up,2-93_mask.png,0.8080557999783196,0,23.36370892508618,289,1
147-25.png,146-7.png,dd,up,147-25_mask.png,0.8311239999893587,1,3.992709259641317,290,2
41-208F.png,65-208F.png,ds,inv,41-208F_mask.png,0.573470700008329,1,17.183151257649243,291,2
7_eyes.png,7_eyes.png,isos,up,7_eyes_mask.png,0.7020522999810055,0,7.970863616012756,292,2
192-216F.png,111-216F.png,ds,inv,192-216F_mask.png,1.065295000007609,0,17.183151257649243,293,2
225-96F.png,128-96F.png,ds,inv,225-96F_mask.png,0.44841579999774694,1,21.636252618780404,294,1
55_eyes.png,55_eyes.png,isos,inv,55_eyes_mask.png,0.8224124999833293,0,8.607263960508302,295,2
2-8.png,46-8.png,ds,up,2-8_mask.png,0.7890459999907762,0,25.229086771816444,296,2
13-128F.png,13-128F.png,ss,up,13-128F_mask.png,0.9411417999945115,1,3.6974979636981815,297,2
44-100.png,44-125.png,sd,inv,44-100_mask.png,0.9106026999943424,1,21.636252618780404,298,1
225_eyes.png,225_eyes.png,isos,inv,225_eyes_mask.png,0.9860698999837041,1,6.8357455957761015,299,1
135-103F.png,197-103F.png,ds,inv,135-103F_mask.png,0.5939903999969829,1,21.636252618780404,300,1
139-135F.png,103-197F.png,dd,up,139-135F_mask.png,1.9216856000130065,0,3.4241138792010055,301,1
208_eyes.png,208_eyes.png,isos,up,208_eyes_mask.png,0.8364299999957439,1,5.862277928868478,302,1
151-146.png,151-146.png,ss,inv,151-146_mask.png,0.8343914000142831,1,17.183151257649243,303,2
128-96F.png,225-30F.png,dd,up,128-96F_mask.png,1.024227999994764,1,3.6974979636981815,304,1
55_eyes.png,147_eyes.png,isod,up,55_eyes_mask.png,2.711041299975477,1,5.862277928868478,305,1
128-30F.png,128-30F.png,ss,inv,128-30F_mask.png,0.6340679000131786,1,17.183151257649243,306,2
111-220F.png,192-216F.png,dd,inv,111-220F_mask.png,2.2041224999993574,1,11.703185684592045,307,1
197-103F.png,135-103F.png,ds,up,197-103F_mask.png,0.6193583000276703,1,25.229086771816444,308,2
96_eyes.png,96_eyes.png,isos,inv,96_eyes_mask.png,1.1145348999998532,1,10.036553609986138,309,2
135_eyes.png,197_eyes.png,isod,up,135_eyes_mask.png,1.677585800003726,0,9.294475034930333,310,2
17-9.png,17-9.png,ss,up,17-9_mask.png,1.162040800001705,1,3.6974979636981815,311,1
2-93.png,2-8.png,sd,inv,2-93_mask.png,0.6829762999841478,1,17.183151257649243,312,2
131-37F.png,131-94F.png,sd,up,131-37F_mask.png,0.6630529999965802,0,25.229086771816444,313,2
49-146.png,49-87.png,sd,up,49-146_mask.png,0.5834866000222974,0,25.229086771816444,314,2
145-66.png,145-148.png,sd,inv,145-66_mask.png,0.8153122999938205,0,17.183151257649243,315,2
41-20F.png,41-208F.png,sd,inv,41-20F_mask.png,0.8566126999794506,1,21.636252618780404,316,1
96-225F.png,96-225F.png,ss,inv,96-225F_mask.png,0.5819713000091724,1,11.703185684592045,317,1
151-146.png,49-87.png,dd,inv,151-146_mask.png,0.6868689999973867,1,17.183151257649243,318,2
148_eyes.png,66_eyes.png,isod,inv,148_eyes_mask.png,0.9552727999980561,1,6.8357455957761015,319,1
139-197F.png,139-197F.png,ss,up,139-197F_mask.png,0.7645418999891263,1,3.6974979636981815,320,2
20-65F.png,20-65F.png,ss,up,20-65F_mask.png,0.9162091000180226,1,3.4241138792010055,321,1
2_eyes.png,76_eyes.png,isod,up,2_eyes_mask.png,0.8232250000000931,1,10.837880352311993,322,2
65-208F.png,41-20F.png,dd,inv,65-208F_mask.png,0.8141071000136435,0,11.703185684592045,323,1
208_eyes.png,20_eyes.png,isod,inv,208_eyes_mask.png,0.773285900009796,0,9.294475034930333,324,2
147_eyes.png,55_eyes.png,isod,inv,147_eyes_mask.png,0.6457749999826774,1,6.8357455957761015,325,1
93_eyes.png,8_eyes.png,isod,inv,93_eyes_mask.png,0.7413391000009142,1,10.837880352311993,326,2
2-93.png,46-8.png,dd,inv,2-93_mask.png,1.3430529000179376,1,15.9126704834961,327,2
76_eyes.png,76_eyes.png,isos,up,76_eyes_mask.png,0.7290767000231426,1,5.862277928868478,328,1
46-8.png,2-8.png,ds,up,46-8_mask.png,0.8192826999875251,0,23.36370892508618,329,1
87_eyes.png,87_eyes.png,isos,inv,87_eyes_mask.png,2.2103908999997657,1,6.330327047908198,330,1
129-94F.png,131-37F.png,dd,up,129-94F_mask.png,0.593347799993353,1,3.4241138792010055,331,2
46-8.png,46-93.png,sd,up,46-8_mask.png,0.7690475000126753,1,23.36370892508618,332,1
123-100.png,123-125.png,sd,up,123-100_mask.png,1.6092483999964315,0,23.36370892508618,333,1
30_eyes.png,30_eyes.png,isos,up,30_eyes_mask.png,0.7607803999853786,1,10.036553609986138,334,2
52-66.png,52-66.png,ss,inv,52-66_mask.png,0.7697068999987096,1,11.703185684592045,335,1
7-147.png,25-55.png,dd,inv,7-147_mask.png,0.6647085000004154,1,11.703185684592045,336,1
25-147.png,25-147.png,ss,inv,25-147_mask.png,0.9083301999780815,1,15.9126704834961,337,2
66_eyes.png,66_eyes.png,isos,inv,66_eyes_mask.png,1.4797854000062216,1,10.036553609986138,338,2
96-225F.png,13-225F.png,ds,inv,96-225F_mask.png,0.7239517999987584,1,21.636252618780404,339,1
197-192F.png,135-103F.png,dd,up,197-192F_mask.png,1.2865560000063851,1,3.4241138792010055,340,1
37_eyes.png,37_eyes.png,isos,up,37_eyes_mask.png,0.7385968999878969,1,9.294475034930333,341,2
20-13F.png,20-65F.png,sd,up,20-13F_mask.png,0.8125512000115123,0,25.229086771816444,342,2
128-96F.png,128-96F.png,ss,up,128-96F_mask.png,0.9713084000104573,1,3.4241138792010055,343,2
125-38.png,125-38.png,ss,up,125-38_mask.png,1.2584908999851905,1,3.170943154762479,344,1
96_eyes.png,96_eyes.png,isos,inv,96_eyes_mask.png,0.8134442000009585,0,6.330327047908198,345,1
25-147.png,7-147.png,ds,up,25-147_mask.png,1.068537599989213,1,25.229086771816444,346,2
220_eyes.png,216_eyes.png,isod,up,220_eyes_mask.png,0.6335732000006828,1,5.428835233189813,347,1
65_eyes.png,13_eyes.png,isod,up,65_eyes_mask.png,0.8233429999963846,1,9.294475034930333,348,2
135_eyes.png,197_eyes.png,isod,inv,135_eyes_mask.png,0.814074800000526,1,6.8357455957761015,349,1
146-25.png,146-7.png,sd,inv,146-25_mask.png,0.9489663999993354,1,18.555068267735685,350,2
7-55.png,7-55.png,ss,inv,7-55_mask.png,0.6142516999971122,1,11.703185684592045,351,1
125-9.png,125-38.png,sd,inv,125-9_mask.png,0.565194299997529,0,20.036520266739068,352,1
197-103F.png,135-103F.png,ds,inv,197-103F_mask.png,0.49364329999662004,1,21.636252618780404,353,1
9_eyes.png,9_eyes.png,isos,inv,9_eyes_mask.png,0.8175455000018701,1,6.8357455957761015,354,1
13_eyes.png,13_eyes.png,isos,up,13_eyes_mask.png,1.312724999996135,1,5.428835233189813,355,1
103_eyes.png,103_eyes.png,isos,up,103_eyes_mask.png,0.6525621000037063,1,5.428835233189813,356,1
17-38.png,17-38.png,ss,up,17-38_mask.png,0.6498924999905284,1,3.170943154762479,357,2
147_eyes.png,55_eyes.png,isod,inv,147_eyes_mask.png,1.199664899992058,1,9.294475034930333,358,2
125_eyes.png,100_eyes.png,isod,up,125_eyes_mask.png,1.2553746000048704,1,0.01,359,1
125_eyes.png,100_eyes.png,isod,up,125_eyes_mask.png,3.525061699998332,1,9.294475034930333,360,2
139-197F.png,103-197F.png,ds,inv,139-197F_mask.png,0.9673163999977987,1,17.183151257649243,361,2
41-20F.png,65-208F.png,dd,inv,41-20F_mask.png,1.3279221999982838,1,11.703185684592045,362,1
65-208F.png,65-208F.png,ss,inv,65-208F_mask.png,0.7553557000064757,1,14.736125994561542,363,2
146-25.png,147-7.png,dd,up,146-25_mask.png,1.780658499978017,1,3.170943154762479,364,2
7-55.png,7-55.png,ss,up,7-55_mask.png,0.8679949000070337,1,3.170943154762479,365,1
7-55.png,25-147.png,dd,up,7-55_mask.png,1.7358074999938253,0,0.01,366,2
146-7.png,147-7.png,ds,up,146-7_mask.png,4.129809599980945,0,23.36370892508618,367,1
160-2.png,160-76.png,sd,up,160-2_mask.png,0.8868267999787349,1,23.36370892508618,368,1
103-135F.png,103-197F.png,sd,up,103-135F_mask.png,0.9251818000047933,0,23.36370892508618,369,1
7-55.png,7-147.png,sd,up,7-55_mask.png,1.4059141999750864,0,25.229086771816444,370,2
129-37F.png,131-37F.png,ds,up,129-37F_mask.png,0.7845828999998048,1,18.229086771816444,371,2
146-7.png,147-25.png,dd,up,146-7_mask.png,1.0084729999944102,0,0.01,372,1
147_eyes.png,147_eyes.png,isos,inv,147_eyes_mask.png,0.7520738000166602,0,9.294475034930333,373,2
46-93.png,2-93.png,ds,inv,46-93_mask.png,0.6973149999976158,1,17.183151257649243,374,2
208-13F.png,208-65F.png,sd,inv,208-13F_mask.png,1.2068725999852177,1,10.183151257649243,375,2
131-37F.png,131-94F.png,sd,inv,131-37F_mask.png,1.7179586999991443,0,14.636252618780404,376,1
131-37F.png,131-37F.png,ss,inv,131-37F_mask.png,0.7765089999884367,1,4.703185684592045,377,1
65_eyes.png,65_eyes.png,isos,up,65_eyes_mask.png,1.4732086000149138,1,1.607263960508302,378,2
76_eyes.png,2_eyes.png,isod,inv,76_eyes_mask.png,0.5662031999963801,0,0.01,379,1
46-8.png,2-93.png,dd,inv,46-8_mask.png,0.8228055000072345,1,13.646572368403794,380,2
65-20F.png,41-20F.png,ds,up,65-20F_mask.png,2.333528200018918,1,18.229086771816444,381,1
17-38.png,125-9.png,dd,inv,17-38_mask.png,1.1115096999856178,1,6.646572368403794,382,2
25_eyes.png,7_eyes.png,isod,inv,25_eyes_mask.png,4.442879200010793,0,3.0365536099861377,383,2
20-65F.png,208-13F.png,dd,inv,20-65F_mask.png,1.2341502000053879,1,13.646572368403794,384,2
192-220F.png,111-220F.png,ds,up,192-220F_mask.png,2.064271599985659,1,25.229086771816444,385,1
192-216F.png,111-220F.png,dd,inv,192-216F_mask.png,0.7251156000129413,1,11.703185684592045,386,1
7_eyes.png,7_eyes.png,isos,inv,7_eyes_mask.png,1.0159973000118043,1,6.330327047908198,387,1
225_eyes.png,128_eyes.png,isod,inv,225_eyes_mask.png,0.5171771000023,1,10.036553609986138,388,2
192_eyes.png,103_eyes.png,isod,up,192_eyes_mask.png,2.1682724000129383,1,5.0274402453675116,389,1
46-93.png,2-8.png,dd,up,46-93_mask.png,2.2648357000143733,1,3.170943154762479,390,1
192-220F.png,111-220F.png,ds,inv,192-220F_mask.png,0.9899480000021867,1,17.183151257649243,391,2
66_eyes.png,148_eyes.png,isod,inv,66_eyes_mask.png,0.5099746999912895,1,9.294475034930333,392,2
225-30F.png,225-96F.png,sd,inv,225-30F_mask.png,0.6729238999832887,0,21.636252618780404,393,1
96-225F.png,96-128F.png,sd,inv,96-225F_mask.png,0.8163773999840487,0,17.183151257649243,394,2
24-2.png,160-2.png,ds,inv,24-2_mask.png,0.9841871999960858,1,21.636252618780404,395,1
41-208F.png,41-208F.png,ss,inv,41-208F_mask.png,0.5920826999936253,1,11.703185684592045,396,1
38_eyes.png,38_eyes.png,isos,up,38_eyes_mask.png,1.2959684999950696,1,8.607263960508302,397,2
160-2.png,24-76.png,dd,up,160-2_mask.png,1.2759408999991138,0,3.170943154762479,398,2
103-135F.png,139-135F.png,ds,inv,103-135F_mask.png,0.5839107999927364,1,21.636252618780404,399,1
111-216F.png,111-216F.png,ss,up,111-216F_mask.png,0.7358286999806296,1,3.4241138792010055,400,2
65_eyes.png,65_eyes.png,isos,up,65_eyes_mask.png,2.1621245999995153,1,5.0274402453675116,401,1
208_eyes.png,20_eyes.png,isod,up,208_eyes_mask.png,2.661191899998812,1,8.607263960508302,402,2
151-146.png,151-87.png,sd,up,151-146_mask.png,0.8901043999940157,0,25.229086771816444,403,1
44-100.png,44-100.png,ss,inv,44-100_mask.png,1.077794000011636,0,10.036553609986138,404,1
111-220F.png,111-216F.png,sd,up,111-220F_mask.png,1.002104099985445,1,25.229086771816444,405,2
44-100.png,123-125.png,dd,up,44-100_mask.png,1.8655852999945637,1,3.170943154762479,406,2
151-146.png,151-146.png,ss,up,151-146_mask.png,1.0470719000149984,1,2.9364912632757605,407,1
65-20F.png,65-20F.png,ss,up,65-20F_mask.png,0.6703175000147894,1,2.9364912632757605,408,1
17-9.png,17-38.png,sd,inv,17-9_mask.png,0.5068388999789022,0,17.183151257649243,409,2
65-20F.png,65-208F.png,sd,inv,65-20F_mask.png,0.6718228000099771,1,21.636252618780404,410,1
24-2.png,160-76.png,dd,inv,24-2_mask.png,1.6284953000140376,1,12.637577710370472,411,2
20-65F.png,208-65F.png,ds,inv,20-65F_mask.png,0.6909497999877203,1,20.036520266739068,412,2
192_eyes.png,192_eyes.png,isos,inv,192_eyes_mask.png,0.9589404999860562,1,9.294475034930333,413,2
146-25.png,147-7.png,dd,inv,146-25_mask.png,1.19982050001272,1,11.703185684592045,414,1
2_eyes.png,2_eyes.png,isos,up,2_eyes_mask.png,1.6714916999917477,1,7.970863616012756,415,2
135-192F.png,135-103F.png,sd,up,135-192F_mask.png,3.5160917000030167,1,25.229086771816444,416,1
225-30F.png,128-30F.png,ds,up,225-30F_mask.png,1.181429799995385,0,25.229086771816444,417,2
146-7.png,146-7.png,ss,inv,146-7_mask.png,0.7578183999867178,1,11.703185684592045,418,2
151-87.png,151-146.png,sd,up,151-87_mask.png,0.895020600000862,0,25.229086771816444,419,2
128_eyes.png,225_eyes.png,isod,up,128_eyes_mask.png,3.7469641999923624,1,4.655723435152049,420,1
41-20F.png,41-20F.png,ss,up,41-20F_mask.png,0.8603752999915741,1,3.170943154762479,421,2
52-148.png,145-148.png,ds,up,52-148_mask.png,1.241351799981203,1,25.229086771816444,422,1
25-147.png,7-55.png,dd,up,25-147_mask.png,1.34308580000652,1,2.9364912632757605,423,1
7_eyes.png,25_eyes.png,isod,up,7_eyes_mask.png,1.2650883999885991,1,7.970863616012756,424,2
37_eyes.png,94_eyes.png,isod,inv,37_eyes_mask.png,1.5744172999984585,1,6.330327047908198,425,1
13-128F.png,13-128F.png,ss,inv,13-128F_mask.png,1.070866100024432,1,11.703185684592045,426,2
220_eyes.png,216_eyes.png,isod,inv,220_eyes_mask.png,0.6517026000074111,1,6.330327047908198,427,1
20_eyes.png,20_eyes.png,isos,inv,20_eyes_mask.png,2.7546369999763556,1,5.862277928868478,428,1
94_eyes.png,94_eyes.png,isos,up,94_eyes_mask.png,2.076278700027615,0,4.655723435152049,429,1
103_eyes.png,103_eyes.png,isos,inv,103_eyes_mask.png,0.9128891000000294,1,9.294475034930333,430,2
44-125.png,123-125.png,ds,up,44-125_mask.png,1.1793628999730572,0,25.229086771816444,431,2
25-55.png,25-55.png,ss,up,25-55_mask.png,0.8077283999882638,1,2.9364912632757605,432,1
17-38.png,125-9.png,dd,up,17-38_mask.png,2.7442074000136927,1,2.9364912632757605,433,1
2-93.png,2-8.png,sd,up,2-93_mask.png,2.6496452999999747,1,25.229086771816444,434,1
44-100.png,123-100.png,ds,inv,44-100_mask.png,0.8870466999942437,1,21.636252618780404,435,1
94_eyes.png,94_eyes.png,isos,up,94_eyes_mask.png,0.9073885999969207,1,5.428835233189813,436,1
225-30F.png,128-30F.png,ds,inv,225-30F_mask.png,0.5663481999945361,1,20.036520266739068,437,2
208_eyes.png,208_eyes.png,isos,inv,208_eyes_mask.png,5.511517600010848,1,9.294475034930333,438,2
96-128F.png,13-128F.png,ds,up,96-128F_mask.png,0.7703776999842376,1,25.229086771816444,439,1
192-216F.png,111-220F.png,dd,up,192-216F_mask.png,0.6668268999783322,1,3.170943154762479,440,2
220_eyes.png,216_eyes.png,isod,up,220_eyes_mask.png,0.6475839999911841,1,5.0274402453675116,441,1
65-208F.png,41-208F.png,ds,up,65-208F_mask.png,0.8689578000048641,1,25.229086771816444,442,2
147-7.png,146-25.png,dd,inv,147-7_mask.png,0.769384799990803,1,10.036553609986138,443,2
208-65F.png,208-13F.png,sd,inv,208-65F_mask.png,0.8821727000176907,1,17.183151257649243,444,2
96_eyes.png,96_eyes.png,isos,up,96_eyes_mask.png,0.9822530999954324,1,5.0274402453675116,445,1
52-148.png,52-66.png,sd,inv,52-148_mask.png,1.262557600013679,0,21.636252618780404,446,1
25-147.png,7-55.png,dd,inv,25-147_mask.png,0.8035652000107802,1,11.703185684592045,447,1
192-216F.png,111-216F.png,ds,up,192-216F_mask.png,1.802674999984447,1,25.229086771816444,448,1
225-30F.png,128-96F.png,dd,up,225-30F_mask.png,1.0661550000077114,0,2.9364912632757605,449,1
25-55.png,7-147.png,dd,up,25-55_mask.png,0.8818977000191808,1,2.9364912632757605,450,2
160-76.png,160-76.png,ss,inv,160-76_mask.png,0.7897426999988966,1,11.703185684592045,451,1
65-20F.png,65-20F.png,ss,inv,65-20F_mask.png,0.9078524000069592,1,10.036553609986138,452,2
128-96F.png,128-30F.png,sd,inv,128-96F_mask.png,0.7828729999891948,1,17.183151257649243,453,2
9_eyes.png,38_eyes.png,isod,inv,9_eyes_mask.png,0.647050900006434,1,9.294475034930333,454,2
52-148.png,52-66.png,sd,up,52-148_mask.png,1.876910399994813,0,25.229086771816444,455,2
13-128F.png,96-225F.png,dd,inv,13-128F_mask.png,0.7369432999985293,1,11.703185684592045,456,1
208-13F.png,20-65F.png,dd,inv,208-13F_mask.png,2.0420184999820776,0,9.294475034930333,457,2
24-2.png,24-76.png,sd,up,24-2_mask.png,1.1597761000157334,1,25.229086771816444,458,2
160-76.png,160-2.png,sd,up,160-76_mask.png,0.7217146999901161,1,32.22908677181644,459,1
123-100.png,123-100.png,ss,up,123-100_mask.png,0.9484573999943677,1,2.9364912632757605,460,2
65_eyes.png,13_eyes.png,isod,inv,65_eyes_mask.png,0.6624496000004001,1,9.294475034930333,461,2
135_eyes.png,135_eyes.png,isos,inv,135_eyes_mask.png,0.8467150000215042,1,5.862277928868478,462,1
20-13F.png,208-13F.png,ds,up,20-13F_mask.png,1.05242689998704,1,32.22908677181644,463,2
100_eyes.png,100_eyes.png,isos,up,100_eyes_mask.png,2.593643800006248,0,7.970863616012756,464,2
8_eyes.png,93_eyes.png,isod,up,8_eyes_mask.png,0.701007199997548,1,12.027440245367512,465,1
131-94F.png,131-94F.png,ss,up,131-94F_mask.png,0.6244040000019595,1,9.93649126327576,466,1
135_eyes.png,197_eyes.png,isod,inv,135_eyes_mask.png,2.1511920999910217,1,5.862277928868478,467,1
192-216F.png,192-216F.png,ss,up,192-216F_mask.png,0.8483311999880243,1,9.93649126327576,468,2
139-135F.png,139-197F.png,sd,inv,139-135F_mask.png,0.7581510999880265,1,21.636252618780404,469,1
87_eyes.png,146_eyes.png,isod,up,87_eyes_mask.png,0.7270163999928627,1,8.607263960508302,470,2
192_eyes.png,192_eyes.png,isos,up,192_eyes_mask.png,1.3320020000101067,1,8.607263960508302,471,2
197-192F.png,197-192F.png,ss,inv,197-192F_mask.png,0.8616783999896143,1,18.703185684592043,472,2
2_eyes.png,2_eyes.png,isos,inv,2_eyes_mask.png,0.850974100001622,1,16.294475034930333,473,2
96-128F.png,13-128F.png,ds,inv,96-128F_mask.png,0.7444380999950226,1,24.183151257649243,474,2
160-2.png,160-2.png,ss,inv,160-2_mask.png,0.5139288000063971,1,18.703185684592043,475,1
2-8.png,46-8.png,ds,inv,2-8_mask.png,0.9009567000030074,1,28.636252618780404,476,1
135_eyes.png,135_eyes.png,isos,inv,135_eyes_mask.png,0.5366554000065662,1,5.862277928868478,477,1
208_eyes.png,20_eyes.png,isod,inv,208_eyes_mask.png,0.7026864000072237,1,12.862277928868478,478,1
208_eyes.png,20_eyes.png,isod,up,208_eyes_mask.png,0.9143336999986786,1,14.970863616012757,479,2
76_eyes.png,76_eyes.png,isos,inv,76_eyes_mask.png,0.6960033999930602,1,9.294475034930333,480,2
55_eyes.png,55_eyes.png,isos,up,55_eyes_mask.png,0.7482099000189919,1,7.970863616012756,481,2
135-103F.png,197-103F.png,ds,up,135-103F_mask.png,0.9737639999948442,1,25.229086771816444,482,1
7_eyes.png,7_eyes.png,isos,up,7_eyes_mask.png,0.7263339000055566,0,7.970863616012756,483,2
52-66.png,145-148.png,dd,up,52-66_mask.png,0.7686725999810733,1,2.9364912632757605,484,1
208_eyes.png,208_eyes.png,isos,up,208_eyes_mask.png,0.9136078000010457,0,5.0274402453675116,485,1
148_eyes.png,148_eyes.png,isos,inv,148_eyes_mask.png,1.0290343000087887,0,5.862277928868478,486,1
216_eyes.png,216_eyes.png,isos,up,216_eyes_mask.png,0.8437647999962792,1,5.428835233189813,487,1
216_eyes.png,220_eyes.png,isod,inv,216_eyes_mask.png,1.5617285999760497,1,5.862277928868478,488,1
146-25.png,146-25.png,ss,up,146-25_mask.png,1.3225649999803863,1,2.9364912632757605,489,1
17-38.png,125-38.png,ds,inv,17-38_mask.png,0.5972940000065137,1,17.183151257649243,490,2
139-197F.png,103-135F.png,dd,up,139-197F_mask.png,0.9811783999903128,0,2.9364912632757605,491,2
24-76.png,160-76.png,ds,up,24-76_mask.png,0.7892941999889445,1,25.229086771816444,492,2
148_eyes.png,148_eyes.png,isos,inv,148_eyes_mask.png,0.8136673999833874,1,5.862277928868478,493,1
197-192F.png,197-103F.png,sd,up,197-192F_mask.png,0.8767313999996986,0,25.229086771816444,494,1
216_eyes.png,220_eyes.png,isod,up,216_eyes_mask.png,0.5854708999977447,1,5.428835233189813,495,1
125-38.png,125-9.png,sd,inv,125-38_mask.png,0.6090779000078328,0,21.636252618780404,496,1
125-38.png,125-9.png,sd,up,125-38_mask.png,0.5361039999988861,0,25.229086771816444,497,2
225_eyes.png,128_eyes.png,isod,up,225_eyes_mask.png,0.6423374000005424,1,8.607263960508302,498,2
52-148.png,145-66.png,dd,inv,52-148_mask.png,1.3919391999952495,0,11.703185684592045,499,1
111-216F.png,192-220F.png,dd,inv,111-216F_mask.png,1.4540426000021398,0,11.703185684592045,500,2
49-87.png,49-87.png,ss,inv,49-87_mask.png,0.5916609000123572,1,12.637577710370472,501,2
147-7.png,147-25.png,sd,up,147-7_mask.png,0.6314523000037298,0,25.229086771816444,502,2
30_eyes.png,30_eyes.png,isos,inv,30_eyes_mask.png,1.2299129999883007,1,9.294475034930333,503,2
41-208F.png,41-208F.png,ss,up,41-208F_mask.png,0.7322951999958605,1,3.170943154762479,504,2
192-220F.png,192-220F.png,ss,up,192-220F_mask.png,0.5849298999819439,1,2.9364912632757605,505,2
25-147.png,25-55.png,sd,inv,25-147_mask.png,0.7209243999968749,1,17.183151257649243,506,2
128_eyes.png,225_eyes.png,isod,up,128_eyes_mask.png,0.6677806000225246,1,8.607263960508302,507,2
147-25.png,146-25.png,ds,up,147-25_mask.png,1.5923721000144724,1,25.229086771816444,508,2
197_eyes.png,135_eyes.png,isod,inv,197_eyes_mask.png,0.4963233000016771,1,9.294475034930333,509,2
147_eyes.png,55_eyes.png,isod,up,147_eyes_mask.png,0.5480985000031069,1,5.0274402453675116,510,1
225-96F.png,128-30F.png,dd,up,225-96F_mask.png,0.7415498000045773,0,2.9364912632757605,511,1
52-148.png,145-148.png,ds,inv,52-148_mask.png,0.7592555999872275,1,21.636252618780404,512,1
7-147.png,25-55.png,dd,up,7-147_mask.png,0.9444111999764573,0,2.9364912632757605,513,2
46-93.png,46-93.png,ss,up,46-93_mask.png,1.0670291999995243,1,2.9364912632757605,514,1
7-147.png,7-147.png,ss,inv,7-147_mask.png,1.6637180999969132,0,11.703185684592045,515,1
24-76.png,24-2.png,sd,inv,24-76_mask.png,0.7885714000149164,0,21.636252618780404,516,1
13-225F.png,13-128F.png,sd,inv,13-225F_mask.png,0.8526053000241518,0,17.183151257649243,517,2
128-96F.png,225-96F.png,ds,inv,128-96F_mask.png,0.6672555000113789,1,21.636252618780404,518,1
131-37F.png,129-37F.png,ds,up,131-37F_mask.png,1.5279291000042576,0,25.229086771816444,519,1
44-100.png,123-125.png,dd,inv,44-100_mask.png,0.922356299997773,1,12.637577710370472,520,2
123-100.png,123-100.png,ss,inv,123-100_mask.png,0.6132348999963142,1,11.703185684592045,521,2
145-148.png,145-148.png,ss,inv,145-148_mask.png,0.7472608000098262,1,11.703185684592045,522,1
49-87.png,151-146.png,dd,inv,49-87_mask.png,0.8142807999975048,0,11.703185684592045,523,1
160-2.png,24-2.png,ds,inv,160-2_mask.png,0.533310500002699,1,17.183151257649243,524,2
197_eyes.png,135_eyes.png,isod,inv,197_eyes_mask.png,0.5838108000170905,1,8.607263960508302,525,2
76_eyes.png,2_eyes.png,isod,inv,76_eyes_mask.png,1.2558714999759104,1,5.862277928868478,526,1
225-30F.png,225-96F.png,sd,up,225-30F_mask.png,0.5333068000036292,0,25.229086771816444,527,1
208-65F.png,20-65F.png,ds,inv,208-65F_mask.png,1.5859819000179414,1,21.636252618780404,528,1
17-9.png,125-9.png,ds,inv,17-9_mask.png,0.9257105000142474,1,17.183151257649243,529,2
96-128F.png,96-225F.png,sd,inv,96-128F_mask.png,2.151353299996117,0,17.183151257649243,530,2
139-197F.png,103-197F.png,ds,up,139-197F_mask.png,0.9125347999797668,1,25.229086771816444,531,1
125-38.png,17-38.png,ds,inv,125-38_mask.png,0.6276376000023447,1,21.636252618780404,532,1
135_eyes.png,135_eyes.png,isos,up,135_eyes_mask.png,1.882054200017592,0,8.607263960508302,533,2
125-38.png,125-38.png,ss,inv,125-38_mask.png,0.46985930000664666,1,11.703185684592045,534,1
20-13F.png,208-65F.png,dd,up,20-13F_mask.png,1.3785592000058386,0,3.170943154762479,535,2
225_eyes.png,225_eyes.png,isos,up,225_eyes_mask.png,0.7869157000095583,0,5.0274402453675116,536,1
146_eyes.png,87_eyes.png,isod,up,146_eyes_mask.png,0.8913636999786831,1,8.607263960508302,537,2
24-2.png,24-2.png,ss,up,24-2_mask.png,0.6065627000061795,1,3.4241138792010055,538,2
100_eyes.png,100_eyes.png,isos,inv,100_eyes_mask.png,1.2062538000172935,0,8.607263960508302,539,2
197-103F.png,197-192F.png,sd,inv,197-103F_mask.png,1.7015363000100479,1,21.636252618780404,540,1
87_eyes.png,146_eyes.png,isod,inv,87_eyes_mask.png,0.9533673000114504,0,9.294475034930333,541,2
93_eyes.png,93_eyes.png,isos,inv,93_eyes_mask.png,0.6768905000062659,1,9.294475034930333,542,2
148_eyes.png,148_eyes.png,isos,up,148_eyes_mask.png,0.9217337000009138,0,5.428835233189813,543,1
208-13F.png,208-13F.png,ss,inv,208-13F_mask.png,0.5323021000076551,1,11.703185684592045,544,2
25-147.png,25-55.png,sd,up,25-147_mask.png,0.7663919999904465,0,25.229086771816444,545,1
17-9.png,17-38.png,sd,up,17-9_mask.png,1.4976699999824632,0,25.229086771816444,546,2
192-216F.png,192-216F.png,ss,inv,192-216F_mask.png,0.5974227999977302,1,11.703185684592045,547,1
225-30F.png,225-30F.png,ss,up,225-30F_mask.png,1.5408282999997027,1,2.9364912632757605,548,1
8_eyes.png,93_eyes.png,isod,inv,8_eyes_mask.png,0.5585715999768581,1,5.862277928868478,549,1
8_eyes.png,8_eyes.png,isos,inv,8_eyes_mask.png,1.1116058000188787,0,5.862277928868478,550,1
41-208F.png,65-20F.png,dd,inv,41-208F_mask.png,0.8026261000195518,1,10.837880352311993,551,2
103-197F.png,139-197F.png,ds,up,103-197F_mask.png,1.0978964999958407,1,25.229086771816444,552,2
49-146.png,49-146.png,ss,up,49-146_mask.png,0.9016755999764428,1,2.9364912632757605,553,1
2-8.png,2-8.png,ss,inv,2-8_mask.png,0.9287904000084382,1,10.837880352311993,554,2
139-197F.png,139-135F.png,sd,inv,139-197F_mask.png,0.6113463999936357,0,14.636252618780404,555,1
2-93.png,46-8.png,dd,up,2-93_mask.png,1.602243000001181,1,3.4241138792010055,556,2
25_eyes.png,25_eyes.png,isos,up,25_eyes_mask.png,1.1701014999998733,0,8.607263960508302,557,2
125-9.png,17-38.png,dd,inv,125-9_mask.png,0.6665071000170428,0,11.703185684592045,558,1
151-87.png,151-146.png,sd,inv,151-87_mask.png,0.7192117999948096,0,17.183151257649243,559,2
131-94F.png,131-37F.png,sd,up,131-94F_mask.png,0.7298751000198536,0,25.229086771816444,560,1
151-87.png,49-87.png,ds,inv,151-87_mask.png,0.6761739000212401,1,13.036520266739068,561,2
94_eyes.png,94_eyes.png,isos,inv,94_eyes_mask.png,1.1207963999768253,1,6.330327047908198,562,1
38_eyes.png,9_eyes.png,isod,up,38_eyes_mask.png,1.0838416000187863,1,5.428835233189813,563,1
44-100.png,123-100.png,ds,up,44-100_mask.png,1.015986200014595,1,25.229086771816444,564,2
146-7.png,146-7.png,ss,up,146-7_mask.png,1.2065150999987964,1,0.01,565,2
55_eyes.png,147_eyes.png,isod,inv,55_eyes_mask.png,1.9423530000203755,0,2.2944750349303327,566,2
103_eyes.png,192_eyes.png,isod,up,103_eyes_mask.png,1.5841780000191648,0,0.01,567,1
24-2.png,160-76.png,dd,up,24-2_mask.png,1.0003759999817703,1,2.9364912632757605,568,1
146_eyes.png,87_eyes.png,isod,inv,146_eyes_mask.png,0.9438362999935634,0,0.01,569,1
160-76.png,24-2.png,dd,inv,160-76_mask.png,1.513647400017362,0,3.0365536099861377,570,2
44-100.png,44-125.png,sd,up,44-100_mask.png,0.8124539999989793,0,18.229086771816444,571,2
13_eyes.png,65_eyes.png,isod,up,13_eyes_mask.png,0.6039002000179607,0,2.2944750349303327,572,2
147-7.png,146-25.png,dd,up,147-7_mask.png,0.5552507000102196,0,0.01,573,1
131-94F.png,129-37F.png,dd,inv,131-94F_mask.png,0.7804964000242762,0,4.703185684592045,574,1
41-208F.png,65-208F.png,ds,up,41-208F_mask.png,0.5969620999821927,1,18.229086771816444,575,1
46-8.png,2-8.png,ds,inv,46-8_mask.png,0.48245420001330785,1,21.636252618780404,576,1
125-38.png,17-9.png,dd,up,125-38_mask.png,0.8067226000130177,0,2.7193741793648707,577,1
46-93.png,46-8.png,sd,inv,46-93_mask.png,0.6618651000026148,1,20.036520266739068,578,2
96-128F.png,13-225F.png,dd,inv,96-128F_mask.png,1.3309494999994058,0,10.036553609986138,579,2
125-9.png,125-38.png,sd,up,125-9_mask.png,0.997147500020219,0,25.229086771816444,580,2
20-65F.png,20-13F.png,sd,inv,20-65F_mask.png,0.7489687000052072,1,17.183151257649243,581,2
216_eyes.png,216_eyes.png,isos,inv,216_eyes_mask.png,2.054657300002873,0,9.294475034930333,582,2
41-20F.png,65-20F.png,ds,inv,41-20F_mask.png,0.5399427000083961,1,17.183151257649243,583,2
96_eyes.png,30_eyes.png,isod,inv,96_eyes_mask.png,1.2941819000116084,1,5.862277928868478,584,1
96_eyes.png,30_eyes.png,isod,up,96_eyes_mask.png,0.9541618000075687,1,5.428835233189813,585,1
123-100.png,123-125.png,sd,inv,123-100_mask.png,2.259446200012462,1,21.636252618780404,586,1
94_eyes.png,37_eyes.png,isod,up,94_eyes_mask.png,0.928840799984755,1,9.294475034930333,587,2
41-20F.png,65-208F.png,dd,up,41-20F_mask.png,1.3471735999919474,0,3.170943154762479,588,2
2-93.png,46-93.png,ds,inv,2-93_mask.png,0.9410005999961868,1,21.636252618780404,589,1
96-225F.png,96-225F.png,ss,up,96-225F_mask.png,0.7185902000055648,1,3.4241138792010055,590,2
197_eyes.png,135_eyes.png,isod,up,197_eyes_mask.png,0.6171600999950897,1,5.428835233189813,591,1
20-13F.png,208-65F.png,dd,inv,20-13F_mask.png,0.6158244000107516,1,11.703185684592045,592,1
76_eyes.png,2_eyes.png,isod,up,76_eyes_mask.png,0.7424881000188179,1,8.607263960508302,593,2
17-38.png,17-38.png,ss,inv,17-38_mask.png,0.7681794000091031,1,11.703185684592045,594,2
65_eyes.png,13_eyes.png,isod,inv,65_eyes_mask.png,0.712741700001061,1,9.294475034930333,595,2
147-7.png,147-7.png,ss,inv,147-7_mask.png,0.747800900018774,0,10.837880352311993,596,2
7-55.png,25-55.png,ds,inv,7-55_mask.png,3.7255892000102904,1,17.183151257649243,597,2
129-37F.png,129-37F.png,ss,inv,129-37F_mask.png,0.7197625999979209,1,11.703185684592045,598,1
76_eyes.png,76_eyes.png,isos,up,76_eyes_mask.png,0.7549552000127733,1,5.428835233189813,599,1
135-103F.png,135-103F.png,ss,up,135-103F_mask.png,1.060182099987287,1,3.4241138792010055,600,2
49-87.png,151-87.png,ds,up,49-87_mask.png,1.1930942999897525,1,25.229086771816444,601,1
94_eyes.png,94_eyes.png,isos,inv,94_eyes_mask.png,1.0730973999889102,1,9.294475034930333,602,2
7_eyes.png,25_eyes.png,isod,inv,7_eyes_mask.png,1.0142521999950986,1,9.294475034930333,603,2
38_eyes.png,38_eyes.png,isos,up,38_eyes_mask.png,0.9814369999803603,1,8.607263960508302,604,2
197-192F.png,135-192F.png,ds,up,197-192F_mask.png,0.9098018000076991,1,25.229086771816444,605,1
131-37F.png,131-37F.png,ss,up,131-37F_mask.png,0.5288623999804258,1,2.9364912632757605,606,1
129-94F.png,129-94F.png,ss,up,129-94F_mask.png,0.5783659000007901,1,2.9364912632757605,607,1
2-8.png,46-93.png,dd,inv,2-8_mask.png,0.7148945000080857,1,11.703185684592045,608,1
129-37F.png,131-94F.png,dd,inv,129-37F_mask.png,0.6680751999956556,0,11.703185684592045,609,2
129-37F.png,129-94F.png,sd,up,129-37F_mask.png,0.8569609000114724,0,25.229086771816444,610,2
160-76.png,24-76.png,ds,up,160-76_mask.png,0.5755807000095956,1,25.229086771816444,611,2
2_eyes.png,2_eyes.png,isos,inv,2_eyes_mask.png,0.8721327999955975,1,5.862277928868478,612,1
44-125.png,123-100.png,dd,up,44-125_mask.png,0.8288132000016049,0,2.9364912632757605,613,1
111-216F.png,192-216F.png,ds,up,111-216F_mask.png,1.107355899992399,1,25.229086771816444,614,2
147-7.png,147-25.png,sd,inv,147-7_mask.png,0.9422139000089373,1,21.636252618780404,615,1
13_eyes.png,13_eyes.png,isos,inv,13_eyes_mask.png,0.6640206000010949,1,5.862277928868478,616,1
192-216F.png,192-220F.png,sd,up,192-216F_mask.png,0.6608767999859992,1,25.229086771816444,617,1
66_eyes.png,66_eyes.png,isos,up,66_eyes_mask.png,0.9780768000055104,1,8.607263960508302,618,2
96-225F.png,96-128F.png,sd,up,96-225F_mask.png,0.9462673999951221,1,25.229086771816444,619,1
103_eyes.png,103_eyes.png,isos,up,103_eyes_mask.png,1.1003505999979097,1,5.428835233189813,620,1
38_eyes.png,9_eyes.png,isod,inv,38_eyes_mask.png,0.4957464000035543,1,5.862277928868478,621,1
103-135F.png,139-197F.png,dd,up,103-135F_mask.png,1.1316785999806598,1,3.4241138792010055,622,2
24-76.png,24-76.png,ss,inv,24-76_mask.png,0.5257389000034891,1,11.703185684592045,623,1
135-192F.png,197-103F.png,dd,up,135-192F_mask.png,0.8114338000013959,1,2.9364912632757605,624,1
220_eyes.png,216_eyes.png,isod,inv,220_eyes_mask.png,0.8826762000098825,1,9.294475034930333,625,2
66_eyes.png,148_eyes.png,isod,up,66_eyes_mask.png,0.49481909998576157,0,5.428835233189813,626,1
111-220F.png,111-220F.png,ss,up,111-220F_mask.png,0.6664942000061274,1,3.4241138792010055,627,2
20-65F.png,20-13F.png,sd,up,20-65F_mask.png,0.799141099996632,1,25.229086771816444,628,1
8_eyes.png,8_eyes.png,isos,inv,8_eyes_mask.png,1.302883500000462,1,9.294475034930333,629,2
17-38.png,17-9.png,sd,inv,17-38_mask.png,0.7142232999904081,0,17.183151257649243,630,2
220_eyes.png,220_eyes.png,isos,inv,220_eyes_mask.png,0.6136678999755532,0,5.862277928868478,631,1
13_eyes.png,65_eyes.png,isod,inv,13_eyes_mask.png,1.4627557000203524,1,5.862277928868478,632,1
192-216F.png,192-220F.png,sd,inv,192-216F_mask.png,1.0196964000060689,1,17.183151257649243,633,2
146-7.png,146-25.png,sd,up,146-7_mask.png,1.042558299988741,1,25.229086771816444,634,2
25_eyes.png,7_eyes.png,isod,up,25_eyes_mask.png,0.7682505999982823,1,5.428835233189813,635,1
225-96F.png,225-96F.png,ss,up,225-96F_mask.png,0.9766884999989998,1,3.170943154762479,636,2
151-146.png,151-87.png,sd,inv,151-146_mask.png,1.3132600999961141,1,21.636252618780404,637,1
13-128F.png,96-128F.png,ds,up,13-128F_mask.png,0.8440159999881871,1,25.229086771816444,638,1
148_eyes.png,148_eyes.png,isos,up,148_eyes_mask.png,0.9060097000037786,1,8.607263960508302,639,2
46-93.png,46-8.png,sd,up,46-93_mask.png,0.9730398000101559,0,25.229086771816444,640,2
17-9.png,125-9.png,ds,up,17-9_mask.png,0.5748308000038378,1,25.229086771816444,641,2
44-125.png,44-125.png,ss,inv,44-125_mask.png,0.6231535000260919,1,12.637577710370472,642,2
2-93.png,2-93.png,ss,up,2-93_mask.png,0.5738390999904368,1,2.9364912632757605,643,1
145-148.png,52-66.png,dd,inv,145-148_mask.png,0.6059867000149097,1,11.703185684592045,644,1
145-148.png,145-66.png,sd,inv,145-148_mask.png,1.9414551999943797,0,21.636252618780404,645,1
46-93.png,2-8.png,dd,inv,46-93_mask.png,0.919039000000339,1,11.703185684592045,646,1
225-96F.png,128-30F.png,dd,inv,225-96F_mask.png,0.8988795000186656,1,12.637577710370472,647,2
146_eyes.png,146_eyes.png,isos,inv,146_eyes_mask.png,0.9743946999951731,1,9.294475034930333,648,2
87_eyes.png,87_eyes.png,isos,up,87_eyes_mask.png,1.247136199992383,1,5.428835233189813,649,1
65-208F.png,65-20F.png,sd,up,65-208F_mask.png,0.6287056000146549,1,25.229086771816444,650,1
225_eyes.png,225_eyes.png,isos,up,225_eyes_mask.png,0.7473759000131395,1,12.428835233189812,651,1
25-55.png,7-55.png,ds,inv,25-55_mask.png,0.6371536999940872,1,17.183151257649243,652,2
103-197F.png,139-197F.png,ds,inv,103-197F_mask.png,0.595408099994529,1,24.183151257649243,653,2
7_eyes.png,25_eyes.png,isod,inv,7_eyes_mask.png,0.715577700000722,1,16.294475034930333,654,2
55_eyes.png,55_eyes.png,isos,up,55_eyes_mask.png,0.6463725000212435,1,8.607263960508302,655,2
197-103F.png,135-192F.png,dd,up,197-103F_mask.png,1.116010700003244,1,2.9364912632757605,656,1
192-220F.png,111-216F.png,dd,up,192-220F_mask.png,0.7351898000051733,1,3.170943154762479,657,2
30_eyes.png,96_eyes.png,isod,inv,30_eyes_mask.png,0.673389599978691,1,5.862277928868478,658,1
145-66.png,145-66.png,ss,up,145-66_mask.png,0.5736613000044599,1,9.93649126327576,659,1
125-9.png,17-9.png,ds,inv,125-9_mask.png,0.6141683000023477,1,21.636252618780404,660,1
25-55.png,7-147.png,dd,inv,25-55_mask.png,0.7570794000057504,1,11.703185684592045,661,2
100_eyes.png,125_eyes.png,isod,up,100_eyes_mask.png,0.5983624999935273,1,8.607263960508302,662,2
208_eyes.png,208_eyes.png,isos,inv,208_eyes_mask.png,0.6703708000131883,1,12.862277928868478,663,1
25-55.png,7-55.png,ds,up,25-55_mask.png,0.7391275999834761,1,32.22908677181644,664,1
192_eyes.png,103_eyes.png,isod,up,192_eyes_mask.png,0.6131799999857321,1,15.607263960508302,665,2
52-148.png,52-148.png,ss,inv,52-148_mask.png,0.5161910000024363,1,11.703185684592045,666,1
49-146.png,151-146.png,ds,inv,49-146_mask.png,0.42261019998113625,1,28.636252618780404,667,1
147-25.png,147-25.png,ss,inv,147-25_mask.png,0.4613130000070669,1,18.703185684592043,668,1
131-94F.png,131-94F.png,ss,inv,131-94F_mask.png,0.48233519998029806,1,18.703185684592043,669,2
208-13F.png,20-65F.png,dd,up,208-13F_mask.png,0.7104942000005394,1,9.93649126327576,670,2
135-192F.png,197-192F.png,ds,up,135-192F_mask.png,0.5453025000169873,1,32.22908677181644,671,2
123-125.png,44-125.png,ds,up,123-125_mask.png,0.9212350000161678,1,25.229086771816444,672,2
111-220F.png,192-216F.png,dd,up,111-220F_mask.png,2.4277589000121225,0,2.9364912632757605,673,2
128-30F.png,225-96F.png,dd,inv,128-30F_mask.png,0.9460212000121828,1,11.703185684592045,674,2
9_eyes.png,9_eyes.png,isos,up,9_eyes_mask.png,0.6441742999886628,1,5.428835233189813,675,1
49-87.png,49-146.png,sd,up,49-87_mask.png,0.5617503999965265,0,25.229086771816444,676,1
129-94F.png,129-94F.png,ss,inv,129-94F_mask.png,0.4507062000047881,1,11.703185684592045,677,2
20_eyes.png,20_eyes.png,isos,up,20_eyes_mask.png,0.48047009998117574,1,8.607263960508302,678,2
103-135F.png,139-197F.png,dd,inv,103-135F_mask.png,0.6046632000070531,1,11.703185684592045,679,1
125_eyes.png,125_eyes.png,isos,inv,125_eyes_mask.png,0.7404653999838047,0,5.862277928868478,680,1
24-76.png,24-76.png,ss,up,24-76_mask.png,0.45355589999235235,1,2.9364912632757605,681,1
17-38.png,125-38.png,ds,up,17-38_mask.png,0.6507241000072099,1,25.229086771816444,682,1
145-66.png,52-148.png,dd,up,145-66_mask.png,0.7359493999974802,0,2.7193741793648707,683,1
52-148.png,145-66.png,dd,up,52-148_mask.png,0.9879059999948367,0,2.9364912632757605,684,1
94_eyes.png,37_eyes.png,isod,inv,94_eyes_mask.png,0.6919794999994338,1,9.294475034930333,685,2
7-147.png,25-147.png,ds,inv,7-147_mask.png,0.6553368000022601,1,21.636252618780404,686,1
197-192F.png,197-103F.png,sd,inv,197-192F_mask.png,0.9679894000000786,1,21.636252618780404,687,1
25-147.png,25-147.png,ss,up,25-147_mask.png,0.9925474000046961,1,2.9364912632757605,688,1
44-100.png,44-100.png,ss,up,44-100_mask.png,0.6747445999935735,1,3.4241138792010055,689,2
2-93.png,2-93.png,ss,inv,2-93_mask.png,0.5030636999872513,1,11.703185684592045,690,2
151-146.png,49-146.png,ds,inv,151-146_mask.png,0.4342785000044387,1,17.183151257649243,691,2
37_eyes.png,94_eyes.png,isod,inv,37_eyes_mask.png,0.8966833000013139,1,6.330327047908198,692,1
139-135F.png,139-197F.png,sd,up,139-135F_mask.png,0.8201820999966003,0,25.229086771816444,693,2
41-20F.png,65-20F.png,ds,up,41-20F_mask.png,0.5733060000056867,1,25.229086771816444,694,2
52-66.png,145-148.png,dd,inv,52-66_mask.png,0.4779991999967024,0,11.703185684592045,695,2
65_eyes.png,13_eyes.png,isod,up,65_eyes_mask.png,0.5787753000040539,1,8.607263960508302,696,2
13-225F.png,96-128F.png,dd,up,13-225F_mask.png,0.8029244000208564,1,3.4241138792010055,697,2
93_eyes.png,8_eyes.png,isod,inv,93_eyes_mask.png,0.7064841000246815,1,9.294475034930333,698,2
139-197F.png,139-135F.png,sd,up,139-197F_mask.png,0.4616624000191223,1,25.229086771816444,699,1
13_eyes.png,65_eyes.png,isod,up,13_eyes_mask.png,0.827110599988373,1,5.428835233189813,700,1
66_eyes.png,66_eyes.png,isos,inv,66_eyes_mask.png,0.769651899987366,1,9.294475034930333,701,2
225-30F.png,225-30F.png,ss,inv,225-30F_mask.png,0.5383905000053346,1,11.703185684592045,702,1
139-135F.png,103-135F.png,ds,up,139-135F_mask.png,0.6362956999801099,1,25.229086771816444,703,1
148_eyes.png,66_eyes.png,isod,up,148_eyes_mask.png,0.5706175999948755,1,5.428835233189813,704,1
197_eyes.png,197_eyes.png,isos,inv,197_eyes_mask.png,0.6833361999888439,1,9.294475034930333,705,2
197_eyes.png,197_eyes.png,isos,up,197_eyes_mask.png,0.6318428000085987,1,5.428835233189813,706,1
160-76.png,160-2.png,sd,inv,160-76_mask.png,0.4131475999893155,0,21.636252618780404,707,1
208-13F.png,20-13F.png,ds,inv,208-13F_mask.png,0.5319553000153974,1,17.183151257649243,708,2
20_eyes.png,208_eyes.png,isod,inv,20_eyes_mask.png,1.222451599984197,0,6.330327047908198,709,1
147_eyes.png,147_eyes.png,isos,inv,147_eyes_mask.png,2.8710021000006236,0,6.330327047908198,710,1
147-25.png,146-25.png,ds,inv,147-25_mask.png,0.5797477999876719,1,21.636252618780404,711,1
147_eyes.png,147_eyes.png,isos,up,147_eyes_mask.png,1.804246499988949,1,8.607263960508302,712,2
216_eyes.png,220_eyes.png,isod,up,216_eyes_mask.png,0.58064739999827,1,8.607263960508302,713,2
7-55.png,7-147.png,sd,inv,7-55_mask.png,0.7809108999790624,1,17.183151257649243,714,2
146-25.png,146-7.png,sd,up,146-25_mask.png,0.7333358000032604,1,25.229086771816444,715,2
2-8.png,2-93.png,sd,inv,2-8_mask.png,0.7352977000118699,1,17.183151257649243,716,2
44-125.png,44-125.png,ss,up,44-125_mask.png,0.6334731999959331,1,3.4241138792010055,717,2
44-125.png,123-100.png,dd,inv,44-125_mask.png,0.711271600011969,1,11.703185684592045,718,1
197-103F.png,197-103F.png,ss,inv,197-103F_mask.png,0.7649431999889202,1,11.703185684592045,719,1
41-20F.png,41-20F.png,ss,inv,41-20F_mask.png,0.940516899980139,1,11.703185684592045,720,2
123-125.png,44-100.png,dd,inv,123-125_mask.png,0.5735311000025831,0,11.703185684592045,721,1
9_eyes.png,38_eyes.png,isod,up,9_eyes_mask.png,0.606353900016984,1,7.970863616012756,722,2
13-128F.png,96-128F.png,ds,inv,13-128F_mask.png,0.5255928999977186,1,21.636252618780404,723,1
216_eyes.png,216_eyes.png,isos,inv,216_eyes_mask.png,0.7362532000115607,1,9.294475034930333,724,2
192-220F.png,192-220F.png,ss,inv,192-220F_mask.png,0.5702137000043876,1,11.703185684592045,725,1
151-146.png,49-146.png,ds,up,151-146_mask.png,0.6268914999964181,0,25.229086771816444,726,2
46-8.png,46-93.png,sd,inv,46-8_mask.png,0.6971720999863464,1,21.636252618780404,727,1
208-65F.png,208-65F.png,ss,up,208-65F_mask.png,0.9890641999954823,1,2.7193741793648707,728,2
216_eyes.png,216_eyes.png,isos,up,216_eyes_mask.png,1.4532717999827582,1,5.0274402453675116,729,1
9_eyes.png,9_eyes.png,isos,up,9_eyes_mask.png,0.62685820000479,0,5.0274402453675116,730,1
66_eyes.png,148_eyes.png,isod,inv,66_eyes_mask.png,1.0177957999985665,1,6.330327047908198,731,1
128-96F.png,225-96F.png,ds,up,128-96F_mask.png,0.6961629000143148,1,25.229086771816444,732,1
103-197F.png,103-197F.png,ss,inv,103-197F_mask.png,0.7160078999877442,1,11.703185684592045,733,1
147-25.png,146-7.png,dd,inv,147-25_mask.png,0.7293875000032131,0,11.703185684592045,734,2
146-7.png,146-25.png,sd,inv,146-7_mask.png,0.619622199999867,1,21.636252618780404,735,1
2-8.png,2-93.png,sd,up,2-8_mask.png,1.6021533999883104,1,25.229086771816444,736,2
65_eyes.png,65_eyes.png,isos,inv,65_eyes_mask.png,1.2258728999877349,0,6.330327047908198,737,1
128_eyes.png,225_eyes.png,isod,inv,128_eyes_mask.png,0.6907087999861687,1,9.294475034930333,738,2
20-13F.png,20-13F.png,ss,up,20-13F_mask.png,0.5581348999985494,1,2.7193741793648707,739,2
96-128F.png,13-225F.png,dd,up,96-128F_mask.png,0.7272676999855321,1,2.9364912632757605,740,1
13-128F.png,96-225F.png,dd,up,13-128F_mask.png,0.6584972999989986,1,2.7193741793648707,741,2
146-7.png,147-7.png,ds,inv,146-7_mask.png,0.79919710001559,1,14.636252618780404,742,1
2_eyes.png,2_eyes.png,isos,up,2_eyes_mask.png,1.1269137999915984,1,7.970863616012756,743,2
20_eyes.png,208_eyes.png,isod,up,20_eyes_mask.png,0.7080827000027057,1,5.428835233189813,744,1
41-208F.png,41-20F.png,sd,up,41-208F_mask.png,0.6790038000035565,1,25.229086771816444,745,1
220_eyes.png,220_eyes.png,isos,inv,220_eyes_mask.png,1.1876310000079684,0,6.330327047908198,746,1
65-208F.png,41-20F.png,dd,up,65-208F_mask.png,0.411563199973898,0,2.9364912632757605,747,1
65-208F.png,65-208F.png,ss,up,65-208F_mask.png,0.8762425000022631,1,3.170943154762479,748,1
96-128F.png,96-128F.png,ss,inv,96-128F_mask.png,0.8085322999977507,1,12.637577710370472,749,2
2_eyes.png,76_eyes.png,isod,inv,2_eyes_mask.png,0.5040150999848265,1,7.970863616012756,750,2
41-20F.png,41-208F.png,sd,up,41-20F_mask.png,0.683328100014478,1,25.229086771816444,751,1
197_eyes.png,197_eyes.png,isos,up,197_eyes_mask.png,0.7995505000289995,1,7.970863616012756,752,2
103-135F.png,139-135F.png,ds,up,103-135F_mask.png,0.7908576999907382,1,18.229086771816444,753,1
129-94F.png,131-94F.png,ds,inv,129-94F_mask.png,0.798512400011532,1,17.183151257649243,754,2
145-66.png,145-148.png,sd,up,145-66_mask.png,0.6541605000093114,1,25.229086771816444,755,2
30_eyes.png,96_eyes.png,isod,up,30_eyes_mask.png,0.7075808000226971,0,0.01,756,1
151-87.png,151-87.png,ss,up,151-87_mask.png,0.37489340000320226,1,0.01,757,1
7-55.png,25-55.png,ds,up,7-55_mask.png,0.8632194999954663,1,18.229086771816444,758,2
24-76.png,160-2.png,dd,up,24-76_mask.png,0.2762576999957673,0,0.01,759,2
103-197F.png,139-135F.png,dd,inv,103-197F_mask.png,1.0885157999873627,0,4.703185684592045,760,1
129-94F.png,129-37F.png,sd,inv,129-94F_mask.png,0.7245582999894395,0,17.183151257649243,761,2
38_eyes.png,9_eyes.png,isod,inv,38_eyes_mask.png,0.27121060001081787,0,0.01,762,1
24-2.png,24-76.png,sd,inv,24-2_mask.png,0.6759388000064064,1,17.183151257649243,763,2
225_eyes.png,128_eyes.png,isod,up,225_eyes_mask.png,0.37622779997764155,0,0.970863616012756,764,2
76_eyes.png,76_eyes.png,isos,inv,76_eyes_mask.png,0.4806791999726556,1,0.970863616012756,765,2
7-55.png,25-147.png,dd,inv,7-55_mask.png,2.1728632999875117,1,4.703185684592045,766,2
123-125.png,44-125.png,ds,inv,123-125_mask.png,0.5814957999973558,1,10.183151257649243,767,2
