im1name,im2name,cond,ori,mask,rt,acc,contrast,trialno,staircase
151-146.png,49-87.png,dd,inv,151-146_mask.png,0.5634663000091678,1,14.736125994561542,0,1
44-125.png,123-100.png,dd,inv,44-125_mask.png,0.7718027000082657,1,14.736125994561542,1,2
44-125.png,44-100.png,sd,inv,44-125_mask.png,0.5164297000010265,0,14.736125994561542,2,1
192-220F.png,192-216F.png,sd,up,192-220F_mask.png,0.5593815000029281,1,14.736125994561542,3,1
123-125.png,44-100.png,dd,up,123-125_mask.png,0.4722772000095574,1,14.736125994561542,4,2
46-93.png,46-8.png,sd,inv,46-93_mask.png,1.0448147999995854,1,18.555068267735685,5,1
125-9.png,17-9.png,ds,up,125-9_mask.png,0.47441780001099687,0,14.736125994561542,6,2
100_eyes.png,100_eyes.png,isos,inv,100_eyes_mask.png,0.5591397999960463,1,14.736125994561542,7,1
147-25.png,147-25.png,ss,inv,147-25_mask.png,0.5119418999966001,0,13.646572368403794,8,1
38_eyes.png,9_eyes.png,isod,inv,38_eyes_mask.png,0.5631789000035496,1,14.736125994561542,9,2
46-8.png,2-8.png,ds,inv,46-8_mask.png,0.6682858999993186,0,18.555068267735685,10,1
41-208F.png,65-208F.png,ds,up,41-208F_mask.png,0.6487943999964045,0,13.646572368403794,11,1
131-94F.png,131-37F.png,sd,up,131-94F_mask.png,0.8687716999993427,0,18.555068267735685,12,2
17-38.png,17-38.png,ss,up,17-38_mask.png,0.7776287000015145,1,13.646572368403794,13,2
7-55.png,7-55.png,ss,up,7-55_mask.png,0.4818176999979187,1,12.637577710370472,14,2
13-225F.png,13-128F.png,sd,inv,13-225F_mask.png,0.5018607000092743,1,14.736125994561542,15,2
2_eyes.png,2_eyes.png,isos,inv,2_eyes_mask.png,0.6973564999934752,1,13.646572368403794,16,2
192-220F.png,111-220F.png,ds,up,192-220F_mask.png,0.7489360000035958,1,21.636252618780404,17,2
225_eyes.png,128_eyes.png,isod,up,225_eyes_mask.png,0.5584683000051882,1,14.736125994561542,18,2
145-148.png,145-148.png,ss,inv,145-148_mask.png,0.6236391999991611,1,17.183151257649243,19,1
192-216F.png,192-216F.png,ss,inv,192-216F_mask.png,0.43555779999587685,1,13.646572368403794,20,2
131-94F.png,131-37F.png,sd,inv,131-94F_mask.png,0.4735731999971904,1,13.646572368403794,21,2
13-225F.png,13-225F.png,ss,inv,13-225F_mask.png,0.6218090000038501,0,12.637577710370472,22,2
49-87.png,151-87.png,ds,inv,49-87_mask.png,0.5404527999926358,0,12.637577710370472,23,2
13_eyes.png,13_eyes.png,isos,inv,13_eyes_mask.png,0.446473199990578,1,12.637577710370472,24,2
103-135F.png,139-197F.png,dd,up,103-135F_mask.png,0.5241547000041464,1,14.736125994561542,25,1
52-148.png,52-148.png,ss,up,52-148_mask.png,0.7811974999931408,0,13.646572368403794,26,1
13_eyes.png,65_eyes.png,isod,inv,13_eyes_mask.png,0.5498305999935837,1,10.837880352311993,27,2
129-37F.png,131-94F.png,dd,up,129-37F_mask.png,0.5031412999960594,1,10.837880352311993,28,2
25-147.png,7-55.png,dd,inv,25-147_mask.png,0.45846439999877475,1,17.183151257649243,29,1
147-7.png,146-25.png,dd,up,147-7_mask.png,0.5275904000009177,1,17.183151257649243,30,1
135_eyes.png,197_eyes.png,isod,up,135_eyes_mask.png,0.5221565999963786,1,14.736125994561542,31,1
38_eyes.png,38_eyes.png,isos,up,38_eyes_mask.png,0.46025110001210123,1,13.646572368403794,32,2
103_eyes.png,192_eyes.png,isod,inv,103_eyes_mask.png,0.5134789000003366,1,13.646572368403794,33,1
103-197F.png,139-197F.png,ds,inv,103-197F_mask.png,0.7004649000009522,1,20.036520266739068,34,1
135_eyes.png,135_eyes.png,isos,inv,135_eyes_mask.png,0.5201068000023952,1,12.637577710370472,35,1
151-87.png,151-146.png,sd,up,151-87_mask.png,0.5707929000054719,1,17.183151257649243,36,1
151-146.png,151-146.png,ss,up,151-146_mask.png,0.5954828000103589,0,17.183151257649243,37,1
96-128F.png,13-225F.png,dd,inv,96-128F_mask.png,0.5389501000026939,1,17.183151257649243,38,2
55_eyes.png,147_eyes.png,isod,up,55_eyes_mask.png,0.6131451999972342,1,13.646572368403794,39,1
65-20F.png,41-20F.png,ds,up,65-20F_mask.png,0.5802855999936583,0,17.183151257649243,40,1
225_eyes.png,225_eyes.png,isos,up,225_eyes_mask.png,0.6526902000041446,1,12.637577710370472,41,2
76_eyes.png,2_eyes.png,isod,up,76_eyes_mask.png,0.5302860999945551,1,10.837880352311993,42,2
2_eyes.png,2_eyes.png,isos,up,2_eyes_mask.png,0.4834858999965945,1,12.637577710370472,43,1
128-30F.png,128-96F.png,sd,up,128-30F_mask.png,0.9834402999986196,0,21.636252618780404,44,2
225_eyes.png,225_eyes.png,isos,up,225_eyes_mask.png,0.551868900001864,1,10.837880352311993,45,1
25_eyes.png,7_eyes.png,isod,inv,25_eyes_mask.png,0.5535112000070512,1,10.837880352311993,46,1
131-94F.png,129-94F.png,ds,inv,131-94F_mask.png,0.8907237999956124,1,17.183151257649243,47,2
160-76.png,160-76.png,ss,inv,160-76_mask.png,0.7969679000088945,1,17.183151257649243,48,1
135_eyes.png,135_eyes.png,isos,up,135_eyes_mask.png,0.5568858000042383,1,10.036553609986138,49,1
131-94F.png,131-94F.png,ss,up,131-94F_mask.png,0.5019801000016741,1,10.036553609986138,50,2
2_eyes.png,76_eyes.png,isod,up,2_eyes_mask.png,0.5135239999945043,1,8.607263960508302,51,1
65-208F.png,65-20F.png,sd,up,65-208F_mask.png,0.5244741999922553,1,21.636252618780404,52,2
208_eyes.png,20_eyes.png,isod,up,208_eyes_mask.png,0.623245599999791,1,10.036553609986138,53,2
145-148.png,52-66.png,dd,inv,145-148_mask.png,0.7097654999961378,1,15.9126704834961,54,1
7-55.png,7-55.png,ss,inv,7-55_mask.png,0.504452900000615,1,15.9126704834961,55,2
197-192F.png,135-103F.png,dd,inv,197-192F_mask.png,0.6433483000000706,1,15.9126704834961,56,2
208-13F.png,20-13F.png,ds,inv,208-13F_mask.png,0.7688057999912417,1,20.036520266739068,57,1
160-76.png,160-2.png,sd,up,160-76_mask.png,0.4974755000002915,1,20.036520266739068,58,1
145-148.png,145-66.png,sd,inv,145-148_mask.png,0.4532091000000946,1,20.036520266739068,59,1
125-38.png,17-9.png,dd,up,125-38_mask.png,0.6744010999973398,1,20.036520266739068,60,1
7-55.png,25-55.png,ds,inv,7-55_mask.png,0.7427602999960072,0,15.9126704834961,61,2
65_eyes.png,13_eyes.png,isod,inv,65_eyes_mask.png,0.5046373999939533,1,10.036553609986138,62,2
160-2.png,24-2.png,ds,inv,160-2_mask.png,0.5880040000047302,1,20.036520266739068,63,1
38_eyes.png,9_eyes.png,isod,up,38_eyes_mask.png,0.5079625999933342,1,8.607263960508302,64,2
208-13F.png,20-13F.png,ds,up,208-13F_mask.png,0.6548034000006737,1,20.036520266739068,65,1
128-30F.png,225-30F.png,ds,inv,128-30F_mask.png,0.6277991000097245,1,18.555068267735685,66,2
25-55.png,25-55.png,ss,up,25-55_mask.png,0.4181454999925336,1,20.036520266739068,67,1
216_eyes.png,216_eyes.png,isos,up,216_eyes_mask.png,0.43277519999537617,1,7.970863616012756,68,1
128_eyes.png,225_eyes.png,isod,inv,128_eyes_mask.png,0.5432534999999916,1,8.607263960508302,69,2
160-2.png,24-76.png,dd,up,160-2_mask.png,0.6087836999940919,1,8.607263960508302,70,2
147-25.png,146-7.png,dd,up,147-25_mask.png,0.5757791999931214,1,7.970863616012756,71,2
87_eyes.png,87_eyes.png,isos,inv,87_eyes_mask.png,0.5603835999936564,0,7.970863616012756,72,2
2-93.png,46-8.png,dd,inv,2-93_mask.png,0.601434900003369,1,14.736125994561542,73,2
100_eyes.png,125_eyes.png,isod,inv,100_eyes_mask.png,0.5528543000109494,1,10.036553609986138,74,1
125-38.png,125-9.png,sd,up,125-38_mask.png,0.6583114999957616,1,21.636252618780404,75,2
197-192F.png,197-192F.png,ss,up,197-192F_mask.png,0.47911739999835845,1,18.555068267735685,76,1
129-94F.png,129-37F.png,sd,inv,129-94F_mask.png,0.5234083000104874,1,30.036520266739068,77,1
111-216F.png,192-216F.png,ds,up,111-216F_mask.png,0.669716000003973,0,18.555068267735685,78,1
7_eyes.png,25_eyes.png,isod,inv,7_eyes_mask.png,0.722876300002099,1,8.607263960508302,79,1
49-146.png,151-146.png,ds,up,49-146_mask.png,0.5494200000102865,0,21.636252618780404,80,2
145-66.png,52-148.png,dd,inv,145-66_mask.png,0.7189199999993434,1,14.736125994561542,81,1
192_eyes.png,103_eyes.png,isod,up,192_eyes_mask.png,0.4734401999885449,1,16.835745595776103,82,1
151-146.png,49-146.png,ds,up,151-146_mask.png,0.48570410000684205,0,33.36370892508618,83,2
147_eyes.png,147_eyes.png,isos,inv,147_eyes_mask.png,0.4501363000017591,1,21.703185684592043,84,2
135-192F.png,135-103F.png,sd,up,135-192F_mask.png,0.4874896999972407,1,31.636252618780404,85,1
7_eyes.png,7_eyes.png,isos,up,7_eyes_mask.png,0.6031032999890158,0,7.970863616012756,86,2
25-55.png,25-55.png,ss,inv,25-55_mask.png,0.490420100002666,1,23.646572368403795,87,1
2-8.png,2-93.png,sd,inv,2-8_mask.png,0.5181326000019908,1,18.555068267735685,88,2
52-66.png,145-148.png,dd,up,52-66_mask.png,0.6407779000001028,1,28.555068267735685,89,1
20-65F.png,20-65F.png,ss,inv,20-65F_mask.png,0.46248909999849275,1,23.646572368403795,90,2
38_eyes.png,38_eyes.png,isos,inv,38_eyes_mask.png,0.77988390000246,0,7.970863616012756,91,1
125_eyes.png,125_eyes.png,isos,up,125_eyes_mask.png,0.49190140000428073,1,21.703185684592043,92,2
7-147.png,7-55.png,sd,inv,7-147_mask.png,0.5274684999894816,1,28.555068267735685,93,2
20_eyes.png,20_eyes.png,isos,inv,20_eyes_mask.png,0.5857739999919431,1,21.703185684592043,94,1
139-197F.png,139-197F.png,ss,up,139-197F_mask.png,0.49783690000185743,0,16.835745595776103,95,2
192_eyes.png,103_eyes.png,isod,up,192_eyes_mask.png,0.5425525000027847,1,11.703185684592045,96,2
197_eyes.png,197_eyes.png,isos,inv,197_eyes_mask.png,0.624403900001198,1,11.703185684592045,97,1
216_eyes.png,220_eyes.png,isod,up,216_eyes_mask.png,0.4387151000119047,1,6.8357455957761015,98,1
24-76.png,24-2.png,sd,up,24-76_mask.png,0.6127802999981213,0,21.636252618780404,99,1
192_eyes.png,192_eyes.png,isos,inv,192_eyes_mask.png,0.45136840001214296,0,11.703185684592045,100,2
25_eyes.png,25_eyes.png,isos,inv,25_eyes_mask.png,0.4967495000018971,0,14.736125994561542,101,2
123-100.png,44-100.png,ds,up,123-100_mask.png,0.6205305000039516,0,23.36370892508618,102,2
128-96F.png,128-96F.png,ss,inv,128-96F_mask.png,0.619068599989987,1,13.646572368403794,103,2
146-25.png,147-25.png,ds,up,146-25_mask.png,0.5297710000013467,0,23.36370892508618,104,2
128_eyes.png,225_eyes.png,isod,inv,128_eyes_mask.png,0.6522106999909738,1,10.837880352311993,105,1
41-208F.png,41-208F.png,ss,inv,41-208F_mask.png,0.7613734000042314,1,13.646572368403794,106,1
44-100.png,44-125.png,sd,inv,44-100_mask.png,0.594427000003634,1,20.036520266739068,107,1
87_eyes.png,87_eyes.png,isos,up,87_eyes_mask.png,0.6181027999991784,0,10.837880352311993,108,2
2-93.png,2-93.png,ss,up,2-93_mask.png,0.5447361999977147,1,18.555068267735685,109,1
148_eyes.png,148_eyes.png,isos,up,148_eyes_mask.png,0.45054309999977704,1,13.646572368403794,110,2
123-100.png,44-100.png,ds,inv,123-100_mask.png,0.4317527999955928,1,18.555068267735685,111,2
13-225F.png,96-128F.png,dd,inv,13-225F_mask.png,0.5900566000054823,1,12.637577710370472,112,2
65-20F.png,41-208F.png,dd,up,65-20F_mask.png,0.6297300000005635,1,6.8357455957761015,113,2
197_eyes.png,197_eyes.png,isos,up,197_eyes_mask.png,0.6923903999995673,0,6.330327047908198,114,1
147-7.png,146-25.png,dd,inv,147-7_mask.png,0.6000733999971999,1,11.703185684592045,115,2
145-66.png,145-66.png,ss,up,145-66_mask.png,0.9513914999988629,1,6.330327047908198,116,2
208-13F.png,208-65F.png,sd,up,208-13F_mask.png,1.4567433999909554,1,21.636252618780404,117,1
197-192F.png,135-103F.png,dd,up,197-192F_mask.png,0.5977242000080878,1,18.555068267735685,118,1
2-8.png,46-8.png,ds,up,2-8_mask.png,0.5653708000027109,0,21.636252618780404,119,1
146-7.png,147-25.png,dd,inv,146-7_mask.png,0.5502311999880476,1,12.637577710370472,120,1
131-37F.png,131-37F.png,ss,inv,131-37F_mask.png,0.5493622999929357,0,10.036553609986138,121,2
125_eyes.png,100_eyes.png,isod,inv,125_eyes_mask.png,0.6227715999993961,1,17.183151257649243,122,2
208-13F.png,208-65F.png,sd,inv,208-13F_mask.png,0.6135740000026999,1,17.183151257649243,123,2
220_eyes.png,220_eyes.png,isos,inv,220_eyes_mask.png,0.4607145999907516,1,10.036553609986138,124,1
197-103F.png,197-103F.png,ss,up,197-103F_mask.png,0.5693361000012374,0,5.862277928868478,125,2
20-65F.png,208-65F.png,ds,inv,20-65F_mask.png,0.594643400007044,1,18.555068267735685,126,1
17-38.png,125-38.png,ds,up,17-38_mask.png,0.6177112000004854,0,23.36370892508618,127,1
24-76.png,160-2.png,dd,inv,24-76_mask.png,0.7758751000073971,0,11.703185684592045,128,1
94_eyes.png,37_eyes.png,isod,up,94_eyes_mask.png,0.5685761000058847,1,13.646572368403794,129,2
147-7.png,147-25.png,sd,up,147-7_mask.png,0.553020799998194,1,25.229086771816444,130,2
65-20F.png,65-208F.png,sd,inv,65-20F_mask.png,0.5864400999998907,1,18.555068267735685,131,1
8_eyes.png,8_eyes.png,isos,up,8_eyes_mask.png,0.7383251000137534,0,9.294475034930333,132,1
125-9.png,17-9.png,ds,inv,125-9_mask.png,0.7082469999877503,1,17.183151257649243,133,2
160-76.png,24-2.png,dd,up,160-76_mask.png,0.5833163999923272,1,18.555068267735685,134,1
25-147.png,7-147.png,ds,inv,25-147_mask.png,0.575336599998991,1,18.555068267735685,135,1
111-220F.png,111-216F.png,sd,up,111-220F_mask.png,0.551682899997104,1,23.36370892508618,136,2
135-103F.png,135-103F.png,ss,up,135-103F_mask.png,0.624979300002451,0,17.183151257649243,137,1
197_eyes.png,135_eyes.png,isod,inv,197_eyes_mask.png,0.5998304000095231,1,9.294475034930333,138,1
20-13F.png,20-13F.png,ss,inv,20-13F_mask.png,0.45518670001183636,1,15.9126704834961,139,1
30_eyes.png,96_eyes.png,isod,inv,30_eyes_mask.png,0.5403891999885673,1,17.183151257649243,140,2
123-100.png,123-125.png,sd,inv,123-100_mask.png,0.630252200004179,1,17.183151257649243,141,2
7_eyes.png,25_eyes.png,isod,up,7_eyes_mask.png,0.5727468999975827,1,12.637577710370472,142,1
192-216F.png,111-220F.png,dd,up,192-216F_mask.png,0.5493464000028325,1,7.970863616012756,143,2
93_eyes.png,8_eyes.png,isod,inv,93_eyes_mask.png,0.634609199987608,1,17.183151257649243,144,2
131-37F.png,131-94F.png,sd,inv,131-37F_mask.png,0.57682040000509,1,17.183151257649243,145,1
17-9.png,17-38.png,sd,up,17-9_mask.png,0.45722460000251886,1,23.36370892508618,146,1
111-216F.png,192-220F.png,dd,inv,111-216F_mask.png,0.501953400002094,1,14.736125994561542,147,1
128-96F.png,225-30F.png,dd,inv,128-96F_mask.png,0.4653035999945132,1,14.736125994561542,148,2
129-94F.png,131-94F.png,ds,inv,129-94F_mask.png,0.6139675000013085,0,15.9126704834961,149,2
103_eyes.png,103_eyes.png,isos,inv,103_eyes_mask.png,0.6451598999992711,0,15.9126704834961,150,2
146-7.png,146-7.png,ss,up,146-7_mask.png,0.5466282999987016,1,20.036520266739068,151,1
225_eyes.png,225_eyes.png,isos,inv,225_eyes_mask.png,0.508322900001076,1,8.607263960508302,152,1
25-55.png,7-55.png,ds,up,25-55_mask.png,0.9114358000078937,1,23.36370892508618,153,2
111-220F.png,111-220F.png,ss,inv,111-220F_mask.png,0.4504707000014605,1,13.646572368403794,154,2
129-37F.png,129-37F.png,ss,up,129-37F_mask.png,0.4075872000103118,1,18.555068267735685,155,1
131-37F.png,129-94F.png,dd,up,131-37F_mask.png,0.5427318000001833,1,7.970863616012756,156,2
96-225F.png,13-128F.png,dd,up,96-225F_mask.png,0.5524304999999003,1,18.555068267735685,157,1
123-100.png,123-100.png,ss,up,123-100_mask.png,0.7057943000108935,1,7.381517178581321,158,2
93_eyes.png,8_eyes.png,isod,up,93_eyes_mask.png,0.5413636000012048,1,12.637577710370472,159,2
151-146.png,151-87.png,sd,up,151-146_mask.png,0.5669991000031587,1,23.36370892508618,160,1
96_eyes.png,30_eyes.png,isod,inv,96_eyes_mask.png,0.5517782000097213,1,7.970863616012756,161,1
128-30F.png,225-96F.png,dd,inv,128-30F_mask.png,0.7289623999968171,1,12.637577710370472,162,2
225-30F.png,128-30F.png,ds,up,225-30F_mask.png,0.8193027000088478,1,23.36370892508618,163,1
128_eyes.png,225_eyes.png,isod,up,128_eyes_mask.png,0.5623612000053981,1,11.703185684592045,164,1
216_eyes.png,216_eyes.png,isos,inv,216_eyes_mask.png,0.4596202999964589,1,18.555068267735685,165,2
135-103F.png,197-192F.png,dd,up,135-103F_mask.png,0.6806584000005387,1,6.8357455957761015,166,2
129-94F.png,129-94F.png,ss,inv,129-94F_mask.png,0.5409753999992972,1,22.637577710370472,167,2
2_eyes.png,2_eyes.png,isos,inv,2_eyes_mask.png,0.8629920000093989,1,7.381517178581321,168,1
66_eyes.png,148_eyes.png,isod,inv,66_eyes_mask.png,1.0193634000024758,1,28.555068267735685,169,2
192-220F.png,192-216F.png,sd,inv,192-220F_mask.png,0.6180115999886766,1,18.555068267735685,170,2
129-37F.png,129-37F.png,ss,inv,129-37F_mask.png,0.600332600006368,0,14.736125994561542,171,1
111-216F.png,111-220F.png,sd,inv,111-216F_mask.png,0.5918532999930903,1,18.555068267735685,172,2
160-76.png,24-76.png,ds,inv,160-76_mask.png,0.5007302000012714,1,17.183151257649243,173,1
139-135F.png,139-197F.png,sd,inv,139-135F_mask.png,0.7349830000021029,1,15.9126704834961,174,1
139-135F.png,103-135F.png,ds,up,139-135F_mask.png,0.6009742000023834,0,23.36370892508618,175,2
24-2.png,160-76.png,dd,up,24-2_mask.png,0.6642697000061162,1,28.555068267735685,176,1
151-87.png,49-87.png,ds,inv,151-87_mask.png,0.5574306000053184,1,27.183151257649243,177,2
41-20F.png,41-208F.png,sd,up,41-20F_mask.png,0.5903357000061078,1,25.229086771816444,178,2
96_eyes.png,30_eyes.png,isod,up,96_eyes_mask.png,0.5903340000077151,1,10.837880352311993,179,1
13_eyes.png,65_eyes.png,isod,up,13_eyes_mask.png,0.5984199999948032,1,11.703185684592045,180,2
145-66.png,145-66.png,ss,inv,145-66_mask.png,0.7179845999926329,0,17.183151257649243,181,1
125-38.png,125-38.png,ss,up,125-38_mask.png,0.7126372999919113,1,16.3303270479082,182,2
128_eyes.png,128_eyes.png,isos,up,128_eyes_mask.png,0.7317691999924136,1,10.837880352311993,183,2
128_eyes.png,128_eyes.png,isos,up,128_eyes_mask.png,0.8303384000028018,0,10.036553609986138,184,1
94_eyes.png,37_eyes.png,isod,inv,94_eyes_mask.png,0.5890757000015583,0,16.835745595776103,185,1
147-25.png,147-7.png,sd,up,147-25_mask.png,0.5408387999923434,1,35.22908677181644,186,2
208-65F.png,20-65F.png,ds,inv,208-65F_mask.png,0.4947530000063125,1,24.73612599456154,187,1
225-96F.png,128-96F.png,ds,up,225-96F_mask.png,0.6503252999973483,0,33.36370892508618,188,1
100_eyes.png,100_eyes.png,isos,up,100_eyes_mask.png,0.44774730000062846,1,20.83788035231199,189,2
49-146.png,151-87.png,dd,inv,49-146_mask.png,0.6294303000031505,1,28.555068267735685,190,1
13_eyes.png,13_eyes.png,isos,up,13_eyes_mask.png,0.6122101999935694,1,22.637577710370472,191,1
38_eyes.png,38_eyes.png,isos,up,38_eyes_mask.png,0.7286040000035428,1,12.637577710370472,192,1
103-197F.png,103-197F.png,ss,up,103-197F_mask.png,0.6989987999986624,1,18.555068267735685,193,1
103_eyes.png,192_eyes.png,isod,up,103_eyes_mask.png,0.6147384999931091,1,11.703185684592045,194,1
44-100.png,123-125.png,dd,inv,44-100_mask.png,0.5577479999919888,1,18.555068267735685,195,1
38_eyes.png,38_eyes.png,isos,inv,38_eyes_mask.png,0.5506501000054413,0,6.8357455957761015,196,1
20-13F.png,208-65F.png,dd,up,20-13F_mask.png,0.5599744000064675,1,6.330327047908198,197,2
24-2.png,24-2.png,ss,up,24-2_mask.png,0.6719886000064434,1,18.555068267735685,198,1
103-135F.png,139-197F.png,dd,inv,103-135F_mask.png,0.652638699990348,1,12.637577710370472,199,2
20-65F.png,208-13F.png,dd,up,20-65F_mask.png,0.5376532000082079,1,17.183151257649243,200,1
148_eyes.png,148_eyes.png,isos,inv,148_eyes_mask.png,0.49210289999609813,1,18.555068267735685,201,2
65-208F.png,65-208F.png,ss,up,65-208F_mask.png,0.607750399998622,1,5.862277928868478,202,2
25-147.png,7-147.png,ds,up,25-147_mask.png,0.7107116999977734,1,23.36370892508618,203,1
93_eyes.png,8_eyes.png,isod,inv,93_eyes_mask.png,0.5941246000002138,1,17.183151257649243,204,2
103-197F.png,103-135F.png,sd,up,103-197F_mask.png,0.6177610000013374,1,23.36370892508618,205,1
20_eyes.png,20_eyes.png,isos,up,20_eyes_mask.png,0.6006673000083538,1,10.837880352311993,206,2
225-96F.png,225-96F.png,ss,up,225-96F_mask.png,0.6641476000077091,1,5.428835233189813,207,2
24-76.png,24-2.png,sd,inv,24-76_mask.png,0.6449720000091475,0,14.736125994561542,208,1
146-7.png,147-7.png,ds,inv,146-7_mask.png,0.49006549999467097,1,18.555068267735685,209,1
25-55.png,7-55.png,ds,inv,25-55_mask.png,0.5259870000008959,1,17.183151257649243,210,2
41-208F.png,65-20F.png,dd,inv,41-208F_mask.png,0.664261699988856,1,11.703185684592045,211,2
111-220F.png,192-220F.png,ds,inv,111-220F_mask.png,0.5332868999976199,1,17.183151257649243,212,1
131-94F.png,131-94F.png,ss,inv,131-94F_mask.png,0.6152715000062017,0,18.555068267735685,213,1
41-20F.png,65-20F.png,ds,up,41-20F_mask.png,0.7899822000035783,0,25.229086771816444,214,2
17-38.png,17-38.png,ss,inv,17-38_mask.png,0.694110800002818,1,10.837880352311993,215,2
103-197F.png,103-135F.png,sd,inv,103-197F_mask.png,0.6337528000003658,1,17.183151257649243,216,1
96_eyes.png,30_eyes.png,isod,up,96_eyes_mask.png,0.6239807999954792,1,10.036553609986138,217,2
145-148.png,145-66.png,sd,up,145-148_mask.png,0.6223535000026459,1,25.229086771816444,218,2
100_eyes.png,125_eyes.png,isod,inv,100_eyes_mask.png,0.5893046999990474,1,9.294475034930333,219,1
65-208F.png,41-208F.png,ds,up,65-208F_mask.png,0.661046900000656,0,23.36370892508618,220,1
125_eyes.png,125_eyes.png,isos,inv,125_eyes_mask.png,0.8824159000068903,1,17.183151257649243,221,2
125-9.png,125-9.png,ss,inv,125-9_mask.png,0.7343135999981314,1,10.837880352311993,222,2
216_eyes.png,216_eyes.png,isos,up,216_eyes_mask.png,0.672770599994692,1,9.294475034930333,223,2
220_eyes.png,216_eyes.png,isod,inv,220_eyes_mask.png,0.5496396999951685,1,8.607263960508302,224,1
208-65F.png,20-13F.png,dd,inv,208-65F_mask.png,0.7429332000028808,1,20.036520266739068,225,1
128-96F.png,225-96F.png,ds,up,128-96F_mask.png,0.912630300008459,0,25.229086771816444,226,2
146_eyes.png,146_eyes.png,isos,inv,146_eyes_mask.png,0.6039815999974962,0,8.607263960508302,227,1
9_eyes.png,9_eyes.png,isos,up,9_eyes_mask.png,0.6596162999921944,0,11.703185684592045,228,1
52-66.png,52-148.png,sd,up,52-66_mask.png,0.5606365999992704,1,23.36370892508618,229,1
139-197F.png,139-135F.png,sd,inv,139-197F_mask.png,0.8176590999937616,1,17.183151257649243,230,2
123-125.png,123-125.png,ss,inv,123-125_mask.png,0.7763738999929046,0,20.036520266739068,231,1
147_eyes.png,55_eyes.png,isod,inv,147_eyes_mask.png,0.5449577999970643,1,17.183151257649243,232,2
148_eyes.png,66_eyes.png,isod,up,148_eyes_mask.png,0.5946489000052679,1,9.294475034930333,233,2
111-220F.png,111-216F.png,sd,inv,111-220F_mask.png,0.5622952999983681,1,17.183151257649243,234,2
25-55.png,25-147.png,sd,up,25-55_mask.png,0.6432940000086091,1,25.229086771816444,235,2
129-94F.png,131-37F.png,dd,up,129-94F_mask.png,0.680604699999094,1,17.183151257649243,236,1
125_eyes.png,100_eyes.png,isod,up,125_eyes_mask.png,0.5816690000065137,1,13.646572368403794,237,1
111-216F.png,192-216F.png,ds,inv,111-216F_mask.png,0.9576379999925848,1,15.9126704834961,238,2
52-148.png,145-66.png,dd,up,52-148_mask.png,0.8386560000071768,1,5.0274402453675116,239,2
192-216F.png,192-220F.png,sd,inv,192-216F_mask.png,0.6299889999936568,1,15.9126704834961,240,2
13-128F.png,13-128F.png,ss,inv,13-128F_mask.png,0.5642315999866696,0,21.636252618780404,241,1
208_eyes.png,20_eyes.png,isod,inv,208_eyes_mask.png,0.8216046000015922,1,10.036553609986138,242,1
65-20F.png,65-20F.png,ss,inv,65-20F_mask.png,0.5880441000044812,1,10.036553609986138,243,2
160-76.png,160-2.png,sd,inv,160-76_mask.png,0.547929699998349,1,17.183151257649243,244,1
151-87.png,151-87.png,ss,inv,151-87_mask.png,0.789533000002848,0,21.636252618780404,245,1
160-2.png,24-76.png,dd,inv,160-2_mask.png,0.64469509999617,1,23.36370892508618,246,1
146_eyes.png,146_eyes.png,isos,inv,146_eyes_mask.png,0.6505895999871427,1,15.9126704834961,247,2
65_eyes.png,65_eyes.png,isos,inv,65_eyes_mask.png,0.6478981999971438,1,15.9126704834961,248,2
41-20F.png,65-20F.png,ds,inv,41-20F_mask.png,0.5015964999911375,1,15.9126704834961,249,2
123-100.png,44-125.png,dd,inv,123-100_mask.png,0.6650029000011273,1,9.294475034930333,250,2
46-8.png,46-8.png,ss,up,46-8_mask.png,0.61372740000661,1,17.183151257649243,251,1
44-125.png,123-125.png,ds,inv,44-125_mask.png,0.7246319000114454,1,15.9126704834961,252,1
25_eyes.png,25_eyes.png,isos,up,25_eyes_mask.png,0.6232104999944568,0,8.607263960508302,253,2
96_eyes.png,96_eyes.png,isos,up,96_eyes_mask.png,0.8689598000055412,0,10.837880352311993,254,2
41-20F.png,41-20F.png,ss,up,41-20F_mask.png,0.7615847999986727,1,4.655723435152049,255,2
103-135F.png,139-135F.png,ds,inv,103-135F_mask.png,0.5145776999997906,1,14.736125994561542,256,2
20_eyes.png,208_eyes.png,isod,up,20_eyes_mask.png,0.6539928999991389,1,12.637577710370472,257,1
135-192F.png,135-103F.png,sd,inv,135-192F_mask.png,0.5869030999892857,1,23.646572368403795,258,2
225_eyes.png,128_eyes.png,isod,inv,225_eyes_mask.png,0.6109381999995094,1,9.294475034930333,259,1
44-100.png,123-100.png,ds,up,44-100_mask.png,0.8818782000016654,0,23.36370892508618,260,1
192-216F.png,192-220F.png,sd,up,192-216F_mask.png,0.5716019000101369,1,25.229086771816444,261,2
129-37F.png,131-37F.png,ds,up,129-37F_mask.png,0.7880126000090968,1,25.229086771816444,262,2
100_eyes.png,100_eyes.png,isos,up,100_eyes_mask.png,0.5963965999981156,0,12.637577710370472,263,1
148_eyes.png,148_eyes.png,isos,inv,148_eyes_mask.png,0.6364118000055896,0,9.294475034930333,264,1
25-55.png,25-147.png,sd,inv,25-55_mask.png,0.6102002000116045,1,15.9126704834961,265,1
151-87.png,49-146.png,dd,inv,151-87_mask.png,0.6399231000104919,1,33.36370892508618,266,1
13-225F.png,96-225F.png,ds,up,13-225F_mask.png,1.0620398999890313,1,25.229086771816444,267,2
125-9.png,17-38.png,dd,up,125-9_mask.png,0.7630819000041811,1,15.9126704834961,268,1
17-38.png,17-9.png,sd,up,17-38_mask.png,0.9638250999996671,1,35.22908677181644,269,2
17-9.png,17-9.png,ss,up,17-9_mask.png,1.4846644000062952,1,4.311490469647435,270,2
9_eyes.png,38_eyes.png,isod,up,9_eyes_mask.png,0.6009641999989981,1,14.736125994561542,271,1
111-220F.png,192-216F.png,dd,up,111-220F_mask.png,1.704236999998102,1,4.311490469647435,272,2
147-7.png,147-7.png,ss,up,147-7_mask.png,0.6668349999963539,1,15.9126704834961,273,1
139-135F.png,103-197F.png,dd,up,139-135F_mask.png,0.5739013999991585,1,13.992709259641316,274,2
160-76.png,24-76.png,ds,up,160-76_mask.png,0.7822935000003781,0,25.229086771816444,275,1
216_eyes.png,220_eyes.png,isod,up,216_eyes_mask.png,0.6386028999986593,1,11.703185684592045,276,2
160-76.png,24-2.png,dd,inv,160-76_mask.png,0.6365779000043403,1,8.607263960508302,277,2
66_eyes.png,66_eyes.png,isos,inv,66_eyes_mask.png,0.5147868000058224,1,20.036553609986136,278,1
41-208F.png,65-20F.png,dd,up,41-208F_mask.png,0.6139281999930972,1,24.73612599456154,279,1
24-76.png,160-76.png,ds,inv,24-76_mask.png,0.6288075999909779,1,24.73612599456154,280,1
2_eyes.png,2_eyes.png,isos,up,2_eyes_mask.png,0.5311815000022762,1,23.646572368403795,281,1
94_eyes.png,37_eyes.png,isod,up,94_eyes_mask.png,0.5339422000106424,1,21.703185684592043,282,2
208-65F.png,208-13F.png,sd,up,208-65F_mask.png,0.647792700008722,1,25.229086771816444,283,1
146_eyes.png,87_eyes.png,isod,inv,146_eyes_mask.png,0.6295811999880243,1,14.736125994561542,284,2
225-30F.png,225-30F.png,ss,inv,225-30F_mask.png,0.8759277000062866,0,17.970863616012757,285,2
13_eyes.png,65_eyes.png,isod,inv,13_eyes_mask.png,0.6486380999995163,1,24.73612599456154,286,2
139-135F.png,139-197F.png,sd,up,139-135F_mask.png,0.6779392000025837,1,35.22908677181644,287,1
8_eyes.png,93_eyes.png,isod,up,8_eyes_mask.png,0.5769789000041783,1,11.703185684592045,288,2
55_eyes.png,55_eyes.png,isos,up,55_eyes_mask.png,0.6962253999954555,0,10.837880352311993,289,2
87_eyes.png,146_eyes.png,isod,inv,87_eyes_mask.png,0.6759546999965096,1,10.036553609986138,290,1
208_eyes.png,20_eyes.png,isod,up,208_eyes_mask.png,0.7046406999870669,1,13.646572368403794,291,1
103-135F.png,103-197F.png,sd,up,103-135F_mask.png,0.6918328999890946,1,25.229086771816444,292,1
135_eyes.png,197_eyes.png,isod,inv,135_eyes_mask.png,0.7438650999974925,0,14.736125994561542,293,2
13_eyes.png,65_eyes.png,isod,up,13_eyes_mask.png,0.5458650000073249,1,13.646572368403794,294,1
41-208F.png,41-20F.png,sd,inv,41-208F_mask.png,0.6195110999979079,1,13.646572368403794,295,2
20-13F.png,208-13F.png,ds,up,20-13F_mask.png,0.650178900003084,1,25.229086771816444,296,1
151-146.png,49-87.png,dd,up,151-146_mask.png,0.7995943999994779,1,3.992709259641317,297,2
65-208F.png,41-208F.png,ds,inv,65-208F_mask.png,0.566886999993585,1,14.736125994561542,298,1
9_eyes.png,9_eyes.png,isos,inv,9_eyes_mask.png,0.6718473000073573,1,17.183151257649243,299,2
7_eyes.png,7_eyes.png,isos,inv,7_eyes_mask.png,0.8266989000112517,1,15.9126704834961,300,2
9_eyes.png,9_eyes.png,isos,up,9_eyes_mask.png,0.6252372000017203,0,12.637577710370472,301,2
25-147.png,25-147.png,ss,inv,25-147_mask.png,0.5831811000098241,1,7.970863616012756,302,2
44-125.png,44-100.png,sd,up,44-125_mask.png,0.6231243999936851,1,25.229086771816444,303,2
135_eyes.png,135_eyes.png,isos,inv,135_eyes_mask.png,0.6459082999936072,0,10.036553609986138,304,1
146-25.png,146-25.png,ss,up,146-25_mask.png,1.0596233999967808,1,14.736125994561542,305,1
208-13F.png,20-65F.png,dd,inv,208-13F_mask.png,0.6005874999973457,1,23.36370892508618,306,1
135_eyes.png,197_eyes.png,isod,up,135_eyes_mask.png,0.7201930000010179,1,13.646572368403794,307,2
20-13F.png,208-65F.png,dd,inv,20-13F_mask.png,0.5709189999906812,1,7.381517178581321,308,2
216_eyes.png,220_eyes.png,isod,inv,216_eyes_mask.png,0.6598360000061803,1,10.837880352311993,309,1
7-147.png,25-55.png,dd,up,7-147_mask.png,0.8488283000042429,1,3.6974979636981815,310,2
192_eyes.png,103_eyes.png,isod,inv,192_eyes_mask.png,0.6305512999970233,1,15.9126704834961,311,2
103-135F.png,103-197F.png,sd,inv,103-135F_mask.png,0.6927264999976614,0,14.736125994561542,312,1
151-146.png,151-146.png,ss,inv,151-146_mask.png,0.6086571000050753,0,23.36370892508618,313,1
24-76.png,24-76.png,ss,inv,24-76_mask.png,0.6707832000101916,1,6.8357455957761015,314,2
49-87.png,151-146.png,dd,inv,49-87_mask.png,0.5997538999945391,0,23.36370892508618,315,1
8_eyes.png,8_eyes.png,isos,inv,8_eyes_mask.png,0.6154765000101179,1,10.837880352311993,316,1
208-65F.png,20-65F.png,ds,up,208-65F_mask.png,0.6941880999947898,0,25.229086771816444,317,2
125-38.png,17-9.png,dd,inv,125-38_mask.png,0.5858697000076063,0,6.8357455957761015,318,2
96-225F.png,96-225F.png,ss,up,96-225F_mask.png,0.6019759999908274,1,3.6974979636981815,319,2
2-8.png,2-8.png,ss,up,2-8_mask.png,0.5046734999923501,1,13.646572368403794,320,1
147-7.png,146-7.png,ds,inv,147-7_mask.png,0.6439863999985391,1,17.183151257649243,321,1
139-197F.png,139-135F.png,sd,up,139-197F_mask.png,0.7374095999985002,0,25.229086771816444,322,2
197-192F.png,135-192F.png,ds,inv,197-192F_mask.png,0.6034281000029296,0,13.646572368403794,323,2
20-13F.png,208-13F.png,ds,inv,20-13F_mask.png,0.5379078999976628,0,15.9126704834961,324,2
125-9.png,125-38.png,sd,inv,125-9_mask.png,1.05982419999782,1,17.183151257649243,325,2
52-148.png,52-66.png,sd,inv,52-148_mask.png,0.7044973000010941,1,17.183151257649243,326,1
49-87.png,151-87.png,ds,up,49-87_mask.png,0.7797886000043945,0,25.229086771816444,327,2
20_eyes.png,20_eyes.png,isos,up,20_eyes_mask.png,0.8446096999978181,0,12.637577710370472,328,1
135-103F.png,135-192F.png,sd,up,135-103F_mask.png,0.6423313999985112,1,25.229086771816444,329,1
13-225F.png,13-225F.png,ss,up,13-225F_mask.png,0.6159420000039972,1,3.4241138792010055,330,2
160-2.png,24-2.png,ds,up,160-2_mask.png,1.0384281000006013,1,25.229086771816444,331,1
2-8.png,46-93.png,dd,up,2-8_mask.png,0.6204631000000518,1,12.637577710370472,332,1
96-128F.png,13-225F.png,dd,up,96-128F_mask.png,0.5208622999925865,1,11.703185684592045,333,1
146_eyes.png,146_eyes.png,isos,up,146_eyes_mask.png,0.5234630000049947,0,14.736125994561542,334,1
96-225F.png,96-225F.png,ss,inv,96-225F_mask.png,0.68597609999415,1,23.36370892508618,335,1
7-55.png,7-147.png,sd,up,7-55_mask.png,0.5625888999929884,1,25.229086771816444,336,1
111-220F.png,192-220F.png,ds,up,111-220F_mask.png,0.5478171999857295,1,25.229086771816444,337,2
128-30F.png,225-30F.png,ds,up,128-30F_mask.png,0.6435438000044087,0,25.229086771816444,338,1
220_eyes.png,216_eyes.png,isod,up,220_eyes_mask.png,0.5294037999992725,1,13.646572368403794,339,2
225-96F.png,128-96F.png,ds,inv,225-96F_mask.png,0.49150709999958053,0,15.9126704834961,340,1
55_eyes.png,147_eyes.png,isod,up,55_eyes_mask.png,0.575536500007729,1,15.9126704834961,341,1
46-8.png,2-93.png,dd,up,46-8_mask.png,0.631932099990081,1,10.837880352311993,342,1
103_eyes.png,103_eyes.png,isos,up,103_eyes_mask.png,0.5420973000000231,1,15.9126704834961,343,1
135-192F.png,135-192F.png,ss,inv,135-192F_mask.png,0.6877028000017162,1,23.36370892508618,344,1
160-2.png,160-76.png,sd,up,160-2_mask.png,0.6597454000002472,1,25.229086771816444,345,1
96-128F.png,13-128F.png,ds,up,96-128F_mask.png,1.0478684999980032,0,35.22908677181644,346,1
145-66.png,52-66.png,ds,inv,145-66_mask.png,0.4855244000063976,0,17.183151257649243,347,1
123-125.png,123-100.png,sd,up,123-125_mask.png,0.5614474000030896,1,25.229086771816444,348,2
25_eyes.png,25_eyes.png,isos,inv,25_eyes_mask.png,0.6349009999976261,0,10.837880352311993,349,1
94_eyes.png,94_eyes.png,isos,up,94_eyes_mask.png,0.6647244000050705,1,15.9126704834961,350,1
52-66.png,52-148.png,sd,inv,52-66_mask.png,0.7337016999954358,1,17.183151257649243,351,2
93_eyes.png,93_eyes.png,isos,inv,93_eyes_mask.png,0.5841060999955516,1,15.9126704834961,352,2
25-147.png,25-55.png,sd,inv,25-147_mask.png,0.5521926000074018,1,17.183151257649243,353,2
55_eyes.png,55_eyes.png,isos,inv,55_eyes_mask.png,0.8657725999946706,1,11.703185684592045,354,1
128-30F.png,128-30F.png,ss,up,128-30F_mask.png,0.6783685999980662,1,3.170943154762479,355,2
44-125.png,44-125.png,ss,inv,44-125_mask.png,0.5387169000023277,1,23.36370892508618,356,1
8_eyes.png,93_eyes.png,isod,up,8_eyes_mask.png,0.6611850999906892,1,13.646572368403794,357,2
197_eyes.png,135_eyes.png,isod,up,197_eyes_mask.png,0.6247367999894777,1,24.73612599456154,358,1
52-148.png,52-66.png,sd,up,52-148_mask.png,0.6150840999907814,1,25.229086771816444,359,2
103-197F.png,139-135F.png,dd,inv,103-197F_mask.png,0.6620913999940967,1,8.607263960508302,360,2
52-66.png,145-148.png,dd,inv,52-66_mask.png,0.570107999999891,0,8.607263960508302,361,2
139-135F.png,139-135F.png,ss,up,139-135F_mask.png,0.5948895000037737,1,10.837880352311993,362,1
44-125.png,123-100.png,dd,up,44-125_mask.png,0.6490195999940624,1,3.170943154762479,363,2
9_eyes.png,9_eyes.png,isos,inv,9_eyes_mask.png,0.7027487000013934,1,15.9126704834961,364,2
148_eyes.png,148_eyes.png,isos,up,148_eyes_mask.png,0.5623749000078533,1,12.637577710370472,365,2
146-7.png,146-7.png,ss,inv,146-7_mask.png,0.5073585000063758,1,10.036553609986138,366,2
7-55.png,7-147.png,sd,inv,7-55_mask.png,0.9424046999920392,1,18.555068267735685,367,1
197-103F.png,135-103F.png,ds,inv,197-103F_mask.png,0.6227354000002379,1,15.9126704834961,368,2
41-20F.png,65-208F.png,dd,up,41-20F_mask.png,0.8533489000110421,1,2.9364912632757605,369,2
41-20F.png,65-208F.png,dd,inv,41-20F_mask.png,0.9466843999980483,1,23.36370892508618,370,1
44-100.png,44-100.png,ss,inv,44-100_mask.png,0.419491199994809,1,20.036553609986136,371,2
65-208F.png,41-20F.png,dd,inv,65-208F_mask.png,0.6659578000108013,1,33.36370892508618,372,1
103-135F.png,103-135F.png,ss,up,103-135F_mask.png,0.7026468999974895,1,12.93649126327576,373,2
87_eyes.png,87_eyes.png,isos,up,87_eyes_mask.png,0.5943989000079455,1,22.637577710370472,374,2
24-2.png,160-2.png,ds,up,24-2_mask.png,0.6662161999993259,1,35.22908677181644,375,2
17-38.png,17-9.png,sd,inv,17-38_mask.png,0.5988163000001805,1,28.555068267735685,376,1
20-13F.png,20-13F.png,ss,up,20-13F_mask.png,0.6060288000007858,0,10.036553609986138,377,1
103_eyes.png,192_eyes.png,isod,inv,103_eyes_mask.png,0.5974156000011135,1,11.703185684592045,378,1
220_eyes.png,216_eyes.png,isod,inv,220_eyes_mask.png,0.5885036999970907,1,14.736125994561542,379,2
197_eyes.png,135_eyes.png,isod,inv,197_eyes_mask.png,0.6206806000118377,1,20.83788035231199,380,1
135-192F.png,197-192F.png,ds,inv,135-192F_mask.png,0.5711338000110118,1,25.9126704834961,381,2
146-25.png,147-7.png,dd,up,146-25_mask.png,0.5797466999938479,1,23.646572368403795,382,1
96_eyes.png,30_eyes.png,isod,inv,96_eyes_mask.png,0.5643745999987004,1,24.73612599456154,383,2
225-30F.png,128-96F.png,dd,inv,225-30F_mask.png,0.6826646999979857,1,23.36370892508618,384,1
192_eyes.png,192_eyes.png,isos,up,192_eyes_mask.png,0.7910315000044648,1,14.736125994561542,385,1
139-197F.png,103-197F.png,ds,inv,139-197F_mask.png,0.7746470999991288,1,15.9126704834961,386,2
30_eyes.png,96_eyes.png,isod,up,30_eyes_mask.png,0.4873496000072919,1,12.637577710370472,387,2
129-37F.png,129-94F.png,sd,inv,129-37F_mask.png,0.5073239999910584,1,15.9126704834961,388,2
52-148.png,145-148.png,ds,up,52-148_mask.png,0.8223485999915283,1,25.229086771816444,389,2
93_eyes.png,93_eyes.png,isos,up,93_eyes_mask.png,0.5889432999974815,0,14.736125994561542,390,1
146_eyes.png,87_eyes.png,isod,up,146_eyes_mask.png,0.6423521999968216,1,15.9126704834961,391,1
208-13F.png,208-13F.png,ss,up,208-13F_mask.png,0.5036076999967918,1,13.646572368403794,392,1
129-94F.png,129-37F.png,sd,up,129-94F_mask.png,0.6189694999920903,1,25.229086771816444,393,1
192-216F.png,111-216F.png,ds,inv,192-216F_mask.png,0.46564199999556877,1,15.9126704834961,394,2
128-30F.png,225-96F.png,dd,up,128-30F_mask.png,0.6302716999925906,1,2.9364912632757605,395,2
125_eyes.png,125_eyes.png,isos,inv,125_eyes_mask.png,0.5969750999938697,1,14.736125994561542,396,2
131-37F.png,129-37F.png,ds,up,131-37F_mask.png,0.804610799998045,0,25.229086771816444,397,1
17-9.png,125-38.png,dd,inv,17-9_mask.png,0.5640712000022177,1,23.36370892508618,398,1
131-94F.png,129-37F.png,dd,inv,131-94F_mask.png,0.5969290000066394,1,10.036553609986138,399,2
37_eyes.png,94_eyes.png,isod,up,37_eyes_mask.png,0.564987799996743,1,12.637577710370472,400,2
139-197F.png,103-135F.png,dd,up,139-197F_mask.png,0.6859610999963479,1,12.637577710370472,401,1
135-103F.png,197-103F.png,ds,inv,135-103F_mask.png,0.8500397000025259,1,18.555068267735685,402,1
52-66.png,145-66.png,ds,up,52-66_mask.png,0.5275857000087854,1,25.229086771816444,403,2
94_eyes.png,94_eyes.png,isos,inv,94_eyes_mask.png,0.5779200999968452,0,13.646572368403794,404,2
103_eyes.png,103_eyes.png,isos,inv,103_eyes_mask.png,0.7519602999964263,0,10.837880352311993,405,1
49-146.png,49-146.png,ss,inv,49-146_mask.png,0.505482699998538,1,23.36370892508618,406,1
25_eyes.png,7_eyes.png,isod,up,25_eyes_mask.png,0.9088819000025978,1,15.9126704834961,407,1
13_eyes.png,13_eyes.png,isos,inv,13_eyes_mask.png,0.5042224000062561,1,12.637577710370472,408,1
46-93.png,2-8.png,dd,up,46-93_mask.png,0.7633380000042962,1,12.637577710370472,409,1
145-66.png,145-148.png,sd,up,145-66_mask.png,0.7162570999935269,1,25.229086771816444,410,2
49-146.png,49-87.png,sd,inv,49-146_mask.png,0.6869646000122884,1,15.9126704834961,411,2
7-147.png,7-147.png,ss,up,7-147_mask.png,0.6029831000050763,1,2.7193741793648707,412,2
129-94F.png,131-94F.png,ds,up,129-94F_mask.png,0.6981939999968745,1,25.229086771816444,413,1
7-147.png,7-147.png,ss,inv,7-147_mask.png,0.7499704000074416,0,9.294475034930333,414,2
128-96F.png,128-96F.png,ss,up,128-96F_mask.png,0.5032645999890519,1,2.7193741793648707,415,2
38_eyes.png,9_eyes.png,isod,inv,38_eyes_mask.png,0.602969600004144,1,11.703185684592045,416,1
216_eyes.png,220_eyes.png,isod,inv,216_eyes_mask.png,0.6015250000054948,1,15.9126704834961,417,2
13-128F.png,96-128F.png,ds,inv,13-128F_mask.png,0.6886337000032654,1,18.555068267735685,418,1
65_eyes.png,65_eyes.png,isos,up,65_eyes_mask.png,0.7811118999961764,0,11.703185684592045,419,2
160-2.png,160-2.png,ss,inv,160-2_mask.png,0.43728230000124313,1,23.36370892508618,420,1
2_eyes.png,76_eyes.png,isod,inv,2_eyes_mask.png,0.6036062000057427,1,11.703185684592045,421,1
208-65F.png,208-65F.png,ss,inv,208-65F_mask.png,0.4584387999930186,1,10.837880352311993,422,2
139-197F.png,103-135F.png,dd,inv,139-197F_mask.png,0.6869004000036512,1,10.837880352311993,423,2
103_eyes.png,103_eyes.png,isos,up,103_eyes_mask.png,0.6186528000107501,0,12.637577710370472,424,2
225-30F.png,225-96F.png,sd,up,225-30F_mask.png,0.689204599999357,1,25.229086771816444,425,1
225-96F.png,225-30F.png,sd,up,225-96F_mask.png,0.9649434000020847,0,25.229086771816444,426,2
46-8.png,46-93.png,sd,inv,46-8_mask.png,0.6219186999951489,1,18.555068267735685,427,1
24-2.png,24-76.png,sd,inv,24-2_mask.png,0.5709449999994831,1,17.183151257649243,428,1
151-87.png,151-87.png,ss,up,151-87_mask.png,0.5715599999966798,1,11.703185684592045,429,1
145-148.png,52-66.png,dd,up,145-148_mask.png,0.6362135999952443,1,2.7193741793648707,430,2
7_eyes.png,25_eyes.png,isod,inv,7_eyes_mask.png,0.6021089999994729,1,15.9126704834961,431,2
225_eyes.png,128_eyes.png,isod,up,225_eyes_mask.png,0.5606663999933517,1,15.9126704834961,432,1
145-66.png,52-148.png,dd,up,145-66_mask.png,0.6977561999956379,1,2.7193741793648707,433,2
225-30F.png,225-30F.png,ss,up,225-30F_mask.png,0.6770139000000199,0,2.518310209153145,434,2
131-37F.png,131-94F.png,sd,up,131-37F_mask.png,0.5446239000011701,1,25.229086771816444,435,1
96-225F.png,96-128F.png,sd,up,96-225F_mask.png,0.5376263999933144,1,25.229086771816444,436,1
20-13F.png,20-65F.png,sd,up,20-13F_mask.png,0.5546226000005845,1,25.229086771816444,437,2
125-9.png,17-38.png,dd,inv,125-9_mask.png,0.6759616999916034,1,10.036553609986138,438,2
128-30F.png,128-96F.png,sd,inv,128-30F_mask.png,0.7439071999979205,1,17.183151257649243,439,1
52-66.png,145-66.png,ds,inv,52-66_mask.png,0.4897318000002997,1,15.9126704834961,440,2
17-9.png,125-9.png,ds,up,17-9_mask.png,0.6615944000077434,1,25.229086771816444,441,1
192-216F.png,192-216F.png,ss,up,192-216F_mask.png,0.4905777000094531,1,11.703185684592045,442,1
93_eyes.png,93_eyes.png,isos,up,93_eyes_mask.png,0.4386067000014009,1,14.736125994561542,443,1
123-125.png,44-125.png,ds,inv,123-125_mask.png,0.4605547000101069,1,17.183151257649243,444,1
197-103F.png,197-192F.png,sd,inv,197-103F_mask.png,0.44171149999601766,0,14.736125994561542,445,2
139-197F.png,103-197F.png,ds,up,139-197F_mask.png,0.5591931999952067,0,25.229086771816444,446,2
129-37F.png,131-94F.png,dd,inv,129-37F_mask.png,0.5603395999933127,1,23.36370892508618,447,1
123-125.png,44-100.png,dd,inv,123-125_mask.png,0.6081954999972368,1,10.036553609986138,448,2
20_eyes.png,208_eyes.png,isod,up,20_eyes_mask.png,0.6072726999991573,1,13.646572368403794,449,2
65_eyes.png,65_eyes.png,isos,inv,65_eyes_mask.png,0.5667360000079498,1,11.703185684592045,450,1
25-55.png,7-147.png,dd,inv,25-55_mask.png,0.5752223000017693,1,23.36370892508618,451,1
135-103F.png,197-103F.png,ds,up,135-103F_mask.png,0.6075439999985974,0,25.229086771816444,452,2
13-225F.png,96-128F.png,dd,up,13-225F_mask.png,0.5985634999960894,1,10.837880352311993,453,1
146-7.png,147-7.png,ds,up,146-7_mask.png,1.197988499989151,0,35.22908677181644,454,1
37_eyes.png,94_eyes.png,isod,inv,37_eyes_mask.png,0.5738987999939127,1,10.837880352311993,455,1
147_eyes.png,55_eyes.png,isod,up,147_eyes_mask.png,0.5666430999990553,1,13.646572368403794,456,2
131-37F.png,131-37F.png,ss,up,131-37F_mask.png,0.7349084000015864,1,2.7193741793648707,457,2
111-216F.png,192-220F.png,dd,up,111-216F_mask.png,1.2881277999986196,0,10.036553609986138,458,1
197-192F.png,197-103F.png,sd,inv,197-192F_mask.png,0.6681085000018356,1,15.9126704834961,459,2
13-225F.png,96-225F.png,ds,inv,13-225F_mask.png,0.6239262999879429,1,17.183151257649243,460,1
125-38.png,125-38.png,ss,inv,125-38_mask.png,0.47026719999848865,1,23.36370892508618,461,1
44-100.png,123-125.png,dd,up,44-100_mask.png,0.5069076999934623,1,12.71937417936487,462,2
123-100.png,123-100.png,ss,inv,123-100_mask.png,0.5898690000030911,1,10.036553609986138,463,2
135-103F.png,135-103F.png,ss,inv,135-103F_mask.png,0.4460049000044819,1,33.36370892508618,464,1
96_eyes.png,96_eyes.png,isos,up,96_eyes_mask.png,0.4040485000004992,1,13.646572368403794,465,2
46-8.png,46-93.png,sd,up,46-8_mask.png,0.46718029999465216,1,35.22908677181644,466,2
9_eyes.png,38_eyes.png,isod,inv,9_eyes_mask.png,0.5042656000005081,1,14.736125994561542,467,2
103-135F.png,103-135F.png,ss,inv,103-135F_mask.png,0.4597661000007065,1,20.036553609986136,468,2
87_eyes.png,146_eyes.png,isod,up,87_eyes_mask.png,0.45698990000528283,1,14.736125994561542,469,1
8_eyes.png,8_eyes.png,isos,inv,8_eyes_mask.png,0.838225200001034,0,14.736125994561542,470,2
30_eyes.png,30_eyes.png,isos,inv,30_eyes_mask.png,0.6121498000138672,1,10.837880352311993,471,1
208_eyes.png,208_eyes.png,isos,up,208_eyes_mask.png,0.4035818999982439,1,23.646572368403795,472,2
192_eyes.png,103_eyes.png,isod,inv,192_eyes_mask.png,0.5952810999879148,1,20.83788035231199,473,1
30_eyes.png,30_eyes.png,isos,up,30_eyes_mask.png,0.5633126000029733,1,24.73612599456154,474,1
128-96F.png,225-96F.png,ds,inv,128-96F_mask.png,0.5084321999893291,1,25.9126704834961,475,2
17-9.png,17-38.png,sd,inv,17-9_mask.png,0.679156400001375,1,27.183151257649243,476,1
20-65F.png,20-65F.png,ss,up,20-65F_mask.png,0.9075297000090359,0,22.637577710370472,477,1
135_eyes.png,197_eyes.png,isod,inv,135_eyes_mask.png,0.6388906000065617,1,15.9126704834961,478,2
87_eyes.png,87_eyes.png,isos,inv,87_eyes_mask.png,0.46881049999501556,1,25.9126704834961,479,2
49-87.png,49-87.png,ss,up,49-87_mask.png,0.7071328999882098,1,12.637577710370472,480,1
52-148.png,145-148.png,ds,inv,52-148_mask.png,0.4698279000003822,1,15.9126704834961,481,2
123-125.png,44-125.png,ds,up,123-125_mask.png,0.5146789999998873,0,25.229086771816444,482,1
192_eyes.png,192_eyes.png,isos,up,192_eyes_mask.png,0.6138273999968078,0,13.646572368403794,483,2
111-216F.png,111-220F.png,sd,up,111-216F_mask.png,0.9569908999983454,1,25.229086771816444,484,1
225-30F.png,128-30F.png,ds,inv,225-30F_mask.png,0.6458679000061238,1,15.9126704834961,485,2
2-93.png,46-93.png,ds,up,2-93_mask.png,0.6275380000006407,0,25.229086771816444,486,1
13-128F.png,96-225F.png,dd,up,13-128F_mask.png,0.6018574000045191,1,12.637577710370472,487,1
147_eyes.png,55_eyes.png,isod,inv,147_eyes_mask.png,0.4971637999988161,1,15.9126704834961,488,2
2-8.png,46-8.png,ds,inv,2-8_mask.png,0.7408095999999205,0,17.183151257649243,489,1
147-25.png,147-25.png,ss,up,147-25_mask.png,0.582556300010765,1,2.7193741793648707,490,2
2-93.png,46-8.png,dd,up,2-93_mask.png,0.5898318999970797,1,2.7193741793648707,491,2
148_eyes.png,66_eyes.png,isod,inv,148_eyes_mask.png,0.5662172000011196,1,10.837880352311993,492,1
49-87.png,49-146.png,sd,up,49-87_mask.png,0.5748171000013826,1,25.229086771816444,493,2
76_eyes.png,2_eyes.png,isod,up,76_eyes_mask.png,0.5591543999908026,1,14.736125994561542,494,1
125-38.png,17-38.png,ds,inv,125-38_mask.png,0.6962854000012157,1,18.555068267735685,495,1
93_eyes.png,8_eyes.png,isod,up,93_eyes_mask.png,0.6363328000006732,1,14.736125994561542,496,2
147-25.png,147-7.png,sd,inv,147-25_mask.png,0.6341463999997359,1,15.9126704834961,497,2
208_eyes.png,208_eyes.png,isos,up,208_eyes_mask.png,0.5924797999905422,1,14.736125994561542,498,1
52-148.png,52-148.png,ss,inv,52-148_mask.png,0.5921549999911804,1,23.36370892508618,499,1
37_eyes.png,94_eyes.png,isod,inv,37_eyes_mask.png,0.5363342000055127,1,10.837880352311993,500,1
7_eyes.png,25_eyes.png,isod,up,7_eyes_mask.png,1.3465948999946704,1,13.646572368403794,501,1
131-94F.png,129-94F.png,ds,up,131-94F_mask.png,0.7561146999942139,0,25.229086771816444,502,2
220_eyes.png,220_eyes.png,isos,inv,220_eyes_mask.png,0.7579795000056038,0,10.837880352311993,503,1
52-66.png,52-66.png,ss,inv,52-66_mask.png,0.41482299999915995,1,23.36370892508618,504,1
128_eyes.png,128_eyes.png,isos,inv,128_eyes_mask.png,0.5581879999954253,0,10.837880352311993,505,1
49-146.png,49-87.png,sd,up,49-146_mask.png,0.8073021000018343,1,25.229086771816444,506,1
2-93.png,2-93.png,ss,inv,2-93_mask.png,0.5740725999930874,1,10.036553609986138,507,2
7-55.png,25-147.png,dd,up,7-55_mask.png,0.5906392999895616,1,2.518310209153145,508,2
225-96F.png,225-30F.png,sd,inv,225-96F_mask.png,0.5101852000079816,0,17.183151257649243,509,1
197-192F.png,197-103F.png,sd,up,197-192F_mask.png,0.5292105999978958,1,25.229086771816444,510,2
46-93.png,2-93.png,ds,up,46-93_mask.png,0.6833960000076331,0,25.229086771816444,511,2
55_eyes.png,55_eyes.png,isos,up,55_eyes_mask.png,0.5840027999947779,0,13.646572368403794,512,2
94_eyes.png,37_eyes.png,isod,inv,94_eyes_mask.png,0.44026789999043103,0,15.9126704834961,513,2
146-25.png,146-7.png,sd,inv,146-25_mask.png,0.5738217000034638,1,15.9126704834961,514,2
208-65F.png,208-65F.png,ss,up,208-65F_mask.png,0.5582474999973783,1,11.703185684592045,515,1
96-128F.png,96-128F.png,ss,inv,96-128F_mask.png,0.5510992999916198,1,9.294475034930333,516,2
208-65F.png,208-13F.png,sd,inv,208-65F_mask.png,0.5444989999959944,1,18.555068267735685,517,1
7_eyes.png,7_eyes.png,isos,up,7_eyes_mask.png,0.8341001999942819,1,13.646572368403794,518,1
30_eyes.png,30_eyes.png,isos,inv,30_eyes_mask.png,1.0002033000055235,0,15.9126704834961,519,2
131-37F.png,129-94F.png,dd,inv,131-37F_mask.png,0.5674995000008494,1,9.294475034930333,520,2
225-96F.png,128-30F.png,dd,inv,225-96F_mask.png,0.5170450000005076,1,23.36370892508618,521,1
17-38.png,125-9.png,dd,inv,17-38_mask.png,0.6474320999986958,1,23.36370892508618,522,1
96_eyes.png,96_eyes.png,isos,inv,96_eyes_mask.png,0.5576073999982327,1,17.183151257649243,523,2
128-96F.png,225-30F.png,dd,up,128-96F_mask.png,0.5744534999976167,1,11.703185684592045,524,1
2_eyes.png,76_eyes.png,isod,up,2_eyes_mask.png,0.5031910999969114,1,14.736125994561542,525,2
52-148.png,145-66.png,dd,inv,52-148_mask.png,0.5066224000038346,1,9.294475034930333,526,2
25-147.png,25-147.png,ss,up,25-147_mask.png,0.7337616000004346,1,2.518310209153145,527,2
41-20F.png,41-20F.png,ss,inv,41-20F_mask.png,0.5973516999947606,1,23.36370892508618,528,1
46-93.png,2-93.png,ds,inv,46-93_mask.png,0.43738180000218563,1,18.555068267735685,529,1
24-2.png,24-76.png,sd,up,24-2_mask.png,0.4671068000025116,1,25.229086771816444,530,1
24-76.png,160-2.png,dd,up,24-76_mask.png,0.6077712999976939,1,10.837880352311993,531,1
131-37F.png,129-37F.png,ds,inv,131-37F_mask.png,0.5030233999859774,0,15.9126704834961,532,2
41-208F.png,65-208F.png,ds,inv,41-208F_mask.png,0.3911402999947313,1,18.555068267735685,533,1
148_eyes.png,66_eyes.png,isod,inv,148_eyes_mask.png,0.5112344000081066,1,17.183151257649243,534,2
148_eyes.png,66_eyes.png,isod,up,148_eyes_mask.png,0.5310179999942193,1,14.736125994561542,535,2
208-13F.png,208-13F.png,ss,inv,208-13F_mask.png,0.7807890999974916,1,8.607263960508302,536,2
160-76.png,160-76.png,ss,up,160-76_mask.png,0.46125839999876916,1,2.518310209153145,537,2
66_eyes.png,148_eyes.png,isod,up,66_eyes_mask.png,0.5863182000030065,1,14.736125994561542,538,2
96-128F.png,96-225F.png,sd,inv,96-128F_mask.png,0.6904694000113523,1,15.9126704834961,539,2
96-225F.png,13-225F.png,ds,up,96-225F_mask.png,0.965915099994163,0,25.229086771816444,540,1
135_eyes.png,135_eyes.png,isos,up,135_eyes_mask.png,0.7269371000002138,0,13.646572368403794,541,2
17-9.png,17-9.png,ss,inv,17-9_mask.png,0.5373239000036847,1,23.36370892508618,542,1
25_eyes.png,7_eyes.png,isod,inv,25_eyes_mask.png,0.5796258000045782,1,11.703185684592045,543,1
96-225F.png,96-128F.png,sd,inv,96-225F_mask.png,0.643781000006129,1,18.555068267735685,544,1
125-9.png,125-38.png,sd,up,125-9_mask.png,0.5374804000020958,1,25.229086771816444,545,2
208-13F.png,20-65F.png,dd,up,208-13F_mask.png,0.5634774000063771,1,2.518310209153145,546,2
13-128F.png,96-225F.png,dd,inv,13-128F_mask.png,0.5564908000087598,1,21.636252618780404,547,1
76_eyes.png,76_eyes.png,isos,up,76_eyes_mask.png,0.8060620000032941,0,13.646572368403794,548,1
103-197F.png,139-135F.png,dd,up,103-197F_mask.png,0.5014465000131167,1,10.837880352311993,549,1
128_eyes.png,128_eyes.png,isos,inv,128_eyes_mask.png,0.41721300000790507,1,11.703185684592045,550,1
24-76.png,160-76.png,ds,up,24-76_mask.png,0.543697200002498,0,25.229086771816444,551,1
94_eyes.png,94_eyes.png,isos,inv,94_eyes_mask.png,0.5138149999984307,0,11.703185684592045,552,1
197-192F.png,135-192F.png,ds,up,197-192F_mask.png,0.5727702000003774,0,25.229086771816444,553,2
44-125.png,44-125.png,ss,up,44-125_mask.png,0.5494022000057157,1,10.036553609986138,554,1
208_eyes.png,208_eyes.png,isos,inv,208_eyes_mask.png,0.4871532999968622,1,17.183151257649243,555,2
76_eyes.png,76_eyes.png,isos,inv,76_eyes_mask.png,0.8652927999937674,1,17.183151257649243,556,2
146-25.png,146-7.png,sd,up,146-25_mask.png,0.4940999000100419,1,25.229086771816444,557,2
46-93.png,2-8.png,dd,inv,46-93_mask.png,0.6337217000109376,1,8.607263960508302,558,2
55_eyes.png,147_eyes.png,isod,inv,55_eyes_mask.png,0.592274599999655,1,27.183151257649243,559,2
13-128F.png,13-225F.png,sd,inv,13-128F_mask.png,0.5599161999998614,1,15.9126704834961,560,2
30_eyes.png,96_eyes.png,isod,up,30_eyes_mask.png,0.5210564000008162,1,14.736125994561542,561,1
65-20F.png,65-20F.png,ss,up,65-20F_mask.png,0.5711884999909671,0,20.036553609986136,562,1
125-9.png,125-9.png,ss,up,125-9_mask.png,0.5797908000095049,0,2.518310209153145,563,2
7-147.png,25-55.png,dd,inv,7-147_mask.png,0.6201354000077117,1,31.636252618780404,564,1
128-30F.png,128-30F.png,ss,inv,128-30F_mask.png,0.6830057999904966,1,7.970863616012756,565,2
46-93.png,46-8.png,sd,up,46-93_mask.png,0.5347831999970367,1,35.22908677181644,566,1
208_eyes.png,20_eyes.png,isod,inv,208_eyes_mask.png,0.5932218999951147,1,21.703185684592043,567,1
13-128F.png,96-128F.png,ds,up,13-128F_mask.png,0.5528157000080682,0,35.22908677181644,568,2
145-66.png,145-148.png,sd,inv,145-66_mask.png,0.7222467999963555,1,28.555068267735685,569,1
192-216F.png,111-220F.png,dd,inv,192-216F_mask.png,0.5967776000034064,1,17.970863616012757,570,2
151-87.png,49-146.png,dd,up,151-87_mask.png,0.5644756999972742,1,12.518310209153146,571,2
66_eyes.png,66_eyes.png,isos,up,66_eyes_mask.png,0.6059247000084724,0,14.736125994561542,572,1
30_eyes.png,30_eyes.png,isos,up,30_eyes_mask.png,0.44477300001017284,1,24.73612599456154,573,2
139-135F.png,103-135F.png,ds,inv,139-135F_mask.png,0.5225725999916904,1,25.9126704834961,574,2
147_eyes.png,55_eyes.png,isod,up,147_eyes_mask.png,0.5494290000060573,1,24.73612599456154,575,1
225_eyes.png,128_eyes.png,isod,inv,225_eyes_mask.png,0.6004331000003731,1,17.183151257649243,576,2
197-103F.png,135-192F.png,dd,up,197-103F_mask.png,0.5277334999991581,1,2.518310209153145,577,2
192_eyes.png,192_eyes.png,isos,inv,192_eyes_mask.png,0.47410710000258405,1,15.9126704834961,578,2
129-37F.png,129-94F.png,sd,up,129-37F_mask.png,0.5024095999979181,1,25.229086771816444,579,2
135-192F.png,197-103F.png,dd,up,135-192F_mask.png,0.48965589998988435,1,2.518310209153145,580,2
125-38.png,17-38.png,ds,up,125-38_mask.png,0.6134282999992138,0,25.229086771816444,581,2
192-220F.png,192-220F.png,ss,inv,192-220F_mask.png,0.6044365999987349,1,21.636252618780404,582,1
100_eyes.png,125_eyes.png,isod,up,100_eyes_mask.png,0.4922719999885885,1,14.736125994561542,583,2
20_eyes.png,20_eyes.png,isos,inv,20_eyes_mask.png,0.47233080001024064,0,11.703185684592045,584,1
147-25.png,146-25.png,ds,inv,147-25_mask.png,0.7007260999962455,1,18.555068267735685,585,1
20_eyes.png,208_eyes.png,isod,inv,20_eyes_mask.png,0.5204106000019237,1,12.637577710370472,586,1
7-147.png,25-147.png,ds,inv,7-147_mask.png,0.5230859000002965,1,17.183151257649243,587,1
41-208F.png,41-208F.png,ss,up,41-208F_mask.png,0.5337207999982638,1,2.518310209153145,588,2
65-20F.png,41-208F.png,dd,inv,65-20F_mask.png,0.6237398000084795,1,21.636252618780404,589,1
129-94F.png,129-94F.png,ss,up,129-94F_mask.png,0.7020768000074895,0,10.036553609986138,590,1
135-192F.png,197-103F.png,dd,inv,135-192F_mask.png,0.633373999997275,1,7.970863616012756,591,2
146_eyes.png,146_eyes.png,isos,up,146_eyes_mask.png,0.5678662999998778,0,14.736125994561542,592,1
25-147.png,25-55.png,sd,up,25-147_mask.png,0.5444320999959018,1,25.229086771816444,593,1
225-30F.png,225-96F.png,sd,inv,225-30F_mask.png,0.6341134999966016,1,15.9126704834961,594,2
147-7.png,147-25.png,sd,inv,147-7_mask.png,0.5508376999932807,1,17.183151257649243,595,1
135-192F.png,135-192F.png,ss,up,135-192F_mask.png,0.6960575999983121,1,2.518310209153145,596,2
55_eyes.png,147_eyes.png,isod,inv,55_eyes_mask.png,1.348107700003311,1,15.9126704834961,597,2
139-197F.png,139-197F.png,ss,inv,139-197F_mask.png,0.8138139000075171,0,7.381517178581321,598,2
41-20F.png,41-208F.png,sd,inv,41-20F_mask.png,0.72477240000444,1,17.183151257649243,599,1
208-65F.png,20-13F.png,dd,up,208-65F_mask.png,1.1830287000047974,1,11.703185684592045,600,1
146-7.png,147-25.png,dd,up,146-7_mask.png,0.718809699988924,1,11.703185684592045,601,1
20-65F.png,20-13F.png,sd,inv,20-65F_mask.png,0.9215836000075797,0,15.9126704834961,602,2
197_eyes.png,197_eyes.png,isos,inv,197_eyes_mask.png,0.6364262000133749,1,12.637577710370472,603,1
76_eyes.png,2_eyes.png,isod,inv,76_eyes_mask.png,0.6014559000032023,1,12.637577710370472,604,1
9_eyes.png,38_eyes.png,isod,up,9_eyes_mask.png,0.6090621999901487,1,15.9126704834961,605,1
111-220F.png,111-220F.png,ss,up,111-220F_mask.png,0.5682452999899397,1,10.837880352311993,606,1
147_eyes.png,147_eyes.png,isos,inv,147_eyes_mask.png,0.5371230000018841,1,15.9126704834961,607,2
146-25.png,147-25.png,ds,inv,146-25_mask.png,0.9390177000022959,0,15.9126704834961,608,2
103-135F.png,139-135F.png,ds,up,103-135F_mask.png,0.7331314000039129,1,25.229086771816444,609,1
220_eyes.png,220_eyes.png,isos,up,220_eyes_mask.png,0.663016599995899,1,14.736125994561542,610,2
37_eyes.png,37_eyes.png,isos,up,37_eyes_mask.png,0.7797695000044769,1,15.9126704834961,611,1
146-25.png,147-7.png,dd,inv,146-25_mask.png,0.5641601999959676,1,21.636252618780404,612,1
46-8.png,46-8.png,ss,inv,46-8_mask.png,0.6050442999985535,0,21.636252618780404,613,1
147_eyes.png,147_eyes.png,isos,up,147_eyes_mask.png,0.6047002999985125,1,14.736125994561542,614,2
139-135F.png,139-135F.png,ss,inv,139-135F_mask.png,0.6357351999904495,1,8.607263960508302,615,2
20-65F.png,20-13F.png,sd,up,20-65F_mask.png,0.5616937000013422,1,25.229086771816444,616,2
44-100.png,123-100.png,ds,inv,44-100_mask.png,0.6587503999908222,1,17.183151257649243,617,2
7-55.png,25-55.png,ds,up,7-55_mask.png,0.807747400001972,0,25.229086771816444,618,2
151-87.png,49-87.png,ds,up,151-87_mask.png,0.7564404000004288,0,25.229086771816444,619,1
2-93.png,2-8.png,sd,up,2-93_mask.png,0.5407456999964779,1,25.229086771816444,620,1
103_eyes.png,192_eyes.png,isod,up,103_eyes_mask.png,0.5827742000110447,1,14.736125994561542,621,2
129-94F.png,131-37F.png,dd,inv,129-94F_mask.png,0.646362900006352,1,8.607263960508302,622,2
65_eyes.png,13_eyes.png,isod,up,65_eyes_mask.png,0.5564274999924237,1,15.9126704834961,623,1
65-208F.png,65-208F.png,ss,inv,65-208F_mask.png,0.6640740000002552,1,23.36370892508618,624,1
147-7.png,146-7.png,ds,up,147-7_mask.png,0.8051819999964209,0,25.229086771816444,625,1
128_eyes.png,225_eyes.png,isod,up,128_eyes_mask.png,0.9487303999922005,1,14.736125994561542,626,2
46-93.png,46-93.png,ss,up,46-93_mask.png,0.5820823000103701,1,2.518310209153145,627,2
44-100.png,44-100.png,ss,up,44-100_mask.png,0.6055180000112159,1,10.837880352311993,628,1
123-125.png,123-100.png,sd,inv,123-125_mask.png,0.6685770000040065,1,17.183151257649243,629,2
37_eyes.png,94_eyes.png,isod,up,37_eyes_mask.png,0.625328999987687,1,15.9126704834961,630,1
8_eyes.png,8_eyes.png,isos,up,8_eyes_mask.png,0.503185300010955,1,13.646572368403794,631,2
55_eyes.png,55_eyes.png,isos,inv,55_eyes_mask.png,0.6826957000012044,0,12.637577710370472,632,1
151-146.png,49-146.png,ds,inv,151-146_mask.png,0.6707416999997804,1,17.183151257649243,633,1
146-7.png,146-25.png,sd,up,146-7_mask.png,0.5553915999917081,1,25.229086771816444,634,2
146-25.png,146-25.png,ss,inv,146-25_mask.png,0.5245739999954822,1,23.36370892508618,635,1
87_eyes.png,146_eyes.png,isod,inv,87_eyes_mask.png,0.559162000005017,1,15.9126704834961,636,2
135-192F.png,197-192F.png,ds,up,135-192F_mask.png,0.608056500001112,1,25.229086771816444,637,1
123-100.png,123-125.png,sd,up,123-100_mask.png,0.5492105999874184,1,25.229086771816444,638,1
96-225F.png,13-128F.png,dd,inv,96-225F_mask.png,0.7903495999926236,1,8.607263960508302,639,2
2-8.png,46-93.png,dd,inv,2-8_mask.png,0.6682771999912802,1,21.636252618780404,640,1
66_eyes.png,148_eyes.png,isod,inv,66_eyes_mask.png,0.5767516000050819,1,12.637577710370472,641,1
146-7.png,146-25.png,sd,inv,146-7_mask.png,0.6009808999951929,1,17.183151257649243,642,1
52-66.png,52-66.png,ss,up,52-66_mask.png,0.5047278999991249,1,10.837880352311993,643,1
94_eyes.png,94_eyes.png,isos,up,94_eyes_mask.png,0.532065599996713,1,15.9126704834961,644,1
197-103F.png,135-192F.png,dd,inv,197-103F_mask.png,0.6941944999998668,1,31.636252618780404,645,1
145-148.png,52-148.png,ds,up,145-148_mask.png,0.769848700001603,0,25.229086771816444,646,2
146_eyes.png,87_eyes.png,isod,up,146_eyes_mask.png,0.9468014000012772,1,13.646572368403794,647,2
46-8.png,2-8.png,ds,up,46-8_mask.png,0.8684824000083609,0,25.229086771816444,648,2
192-220F.png,111-216F.png,dd,up,192-220F_mask.png,0.7209452000097372,1,2.518310209153145,649,2
151-146.png,151-87.png,sd,inv,151-146_mask.png,0.6837724999932107,1,17.183151257649243,650,1
96-128F.png,13-128F.png,ds,inv,96-128F_mask.png,0.6547647999977926,1,17.183151257649243,651,2
2-93.png,2-8.png,sd,inv,2-93_mask.png,0.5870409999915864,1,15.9126704834961,652,2
20_eyes.png,208_eyes.png,isod,inv,20_eyes_mask.png,0.6353831000014907,1,12.637577710370472,653,1
96-225F.png,13-225F.png,ds,inv,96-225F_mask.png,0.49755179999920074,1,27.183151257649243,654,1
17-38.png,125-38.png,ds,inv,17-38_mask.png,0.6772387999953935,1,25.9126704834961,655,2
65-20F.png,65-208F.png,sd,up,65-20F_mask.png,0.5534443000069587,1,35.22908677181644,656,2
123-100.png,44-125.png,dd,up,123-100_mask.png,0.6588141999964137,1,2.518310209153145,657,2
7-147.png,7-55.png,sd,up,7-147_mask.png,0.5596871000016108,1,35.22908677181644,658,1
13-128F.png,13-128F.png,ss,up,13-128F_mask.png,0.5047077999915928,1,12.518310209153146,659,2
147-7.png,147-7.png,ss,inv,147-7_mask.png,0.5800668000010774,0,8.607263960508302,660,2
125_eyes.png,125_eyes.png,isos,up,125_eyes_mask.png,0.5967929000034928,1,14.736125994561542,661,1
66_eyes.png,148_eyes.png,isod,up,66_eyes_mask.png,0.652126800006954,1,24.73612599456154,662,1
8_eyes.png,93_eyes.png,isod,inv,8_eyes_mask.png,0.5697885999979917,1,15.9126704834961,663,2
197_eyes.png,197_eyes.png,isos,up,197_eyes_mask.png,0.5864052999968408,0,23.646572368403795,664,2
49-146.png,151-87.png,dd,up,49-146_mask.png,0.5543495000019902,1,10.036553609986138,665,1
100_eyes.png,100_eyes.png,isos,inv,100_eyes_mask.png,0.5799864000000525,1,15.9126704834961,666,2
46-8.png,2-93.png,dd,inv,46-8_mask.png,0.5964845999988029,1,9.294475034930333,667,2
49-87.png,151-146.png,dd,up,49-87_mask.png,0.5642024999979185,1,20.036553609986136,668,1
225_eyes.png,225_eyes.png,isos,inv,225_eyes_mask.png,0.5733685999875888,1,22.637577710370472,669,1
49-87.png,49-87.png,ss,inv,49-87_mask.png,0.574146999992081,1,19.294475034930333,670,2
37_eyes.png,37_eyes.png,isos,inv,37_eyes_mask.png,0.454709500001627,1,25.9126704834961,671,2
147-25.png,146-7.png,dd,inv,147-25_mask.png,0.6401702000002842,1,21.636252618780404,672,1
208_eyes.png,208_eyes.png,isos,inv,208_eyes_mask.png,0.8143383999995422,1,12.637577710370472,673,1
44-100.png,44-125.png,sd,up,44-100_mask.png,0.7014412999997148,1,25.229086771816444,674,1
100_eyes.png,125_eyes.png,isod,up,100_eyes_mask.png,0.6889311999984784,1,13.646572368403794,675,2
49-87.png,49-146.png,sd,inv,49-87_mask.png,0.620969800002058,1,17.183151257649243,676,1
197-192F.png,197-192F.png,ss,inv,197-192F_mask.png,0.5476514000038151,0,9.294475034930333,677,2
128-96F.png,128-30F.png,sd,inv,128-96F_mask.png,0.6293151999998372,1,15.9126704834961,678,2
220_eyes.png,216_eyes.png,isod,up,220_eyes_mask.png,0.5801757000008365,1,14.736125994561542,679,1
225-96F.png,225-96F.png,ss,inv,225-96F_mask.png,0.5402496000024257,1,21.636252618780404,680,1
160-2.png,160-2.png,ss,up,160-2_mask.png,0.6779846999997972,1,2.518310209153145,681,2
66_eyes.png,66_eyes.png,isos,inv,66_eyes_mask.png,0.5546128999994835,1,12.637577710370472,682,1
25_eyes.png,7_eyes.png,isod,up,25_eyes_mask.png,0.5801161999988835,1,14.736125994561542,683,1
76_eyes.png,2_eyes.png,isod,inv,76_eyes_mask.png,0.7406264999881387,1,12.637577710370472,684,1
25-147.png,7-55.png,dd,up,25-147_mask.png,0.6063006000040332,1,10.036553609986138,685,1
20-65F.png,208-13F.png,dd,inv,20-65F_mask.png,0.5897989999939455,0,9.294475034930333,686,2
76_eyes.png,76_eyes.png,isos,inv,76_eyes_mask.png,0.4700874999980442,1,15.9126704834961,687,2
65_eyes.png,65_eyes.png,isos,up,65_eyes_mask.png,1.1389977000071667,1,13.646572368403794,688,2
125-38.png,125-9.png,sd,inv,125-38_mask.png,0.860605800000485,1,15.9126704834961,689,2
24-2.png,160-76.png,dd,inv,24-2_mask.png,0.593642899999395,1,21.636252618780404,690,1
96-128F.png,96-225F.png,sd,up,96-128F_mask.png,0.8734063000010792,1,25.229086771816444,691,2
135-103F.png,197-192F.png,dd,inv,135-103F_mask.png,0.574147899998934,1,10.036553609986138,692,2
2-8.png,2-8.png,ss,inv,2-8_mask.png,0.5729433000087738,1,21.636252618780404,693,1
192-220F.png,111-220F.png,ds,inv,192-220F_mask.png,0.6057202000083635,1,17.183151257649243,694,1
17-9.png,125-38.png,dd,up,17-9_mask.png,0.8210395000060089,1,2.518310209153145,695,2
8_eyes.png,93_eyes.png,isod,inv,8_eyes_mask.png,0.6199253999948269,1,15.9126704834961,696,2
216_eyes.png,216_eyes.png,isos,inv,216_eyes_mask.png,0.6270019999938086,1,15.9126704834961,697,2
65-20F.png,41-20F.png,ds,inv,65-20F_mask.png,0.5529384999972535,1,17.183151257649243,698,1
66_eyes.png,66_eyes.png,isos,up,66_eyes_mask.png,0.6026389000035124,1,14.736125994561542,699,1
65_eyes.png,13_eyes.png,isod,inv,65_eyes_mask.png,0.6264241000026232,1,15.9126704834961,700,2
111-216F.png,111-216F.png,ss,inv,111-216F_mask.png,0.6167665000102716,1,10.036553609986138,701,2
87_eyes.png,146_eyes.png,isod,up,87_eyes_mask.png,0.5516032999876188,1,13.646572368403794,702,2
17-38.png,125-9.png,dd,up,17-38_mask.png,0.6889790999994148,1,9.294475034930333,703,1
7-147.png,25-147.png,ds,up,7-147_mask.png,1.2847311000077752,1,25.229086771816444,704,2
49-146.png,151-146.png,ds,inv,49-146_mask.png,0.5125848999887239,1,15.9126704834961,705,2
25_eyes.png,25_eyes.png,isos,up,25_eyes_mask.png,0.6679406000039307,1,14.736125994561542,706,1
37_eyes.png,37_eyes.png,isos,up,37_eyes_mask.png,0.5675895000022138,0,13.646572368403794,707,2
49-146.png,49-146.png,ss,up,49-146_mask.png,0.6162738999992143,1,8.607263960508302,708,1
128-96F.png,128-30F.png,sd,up,128-96F_mask.png,0.990861500002211,1,25.229086771816444,709,1
25-55.png,7-147.png,dd,up,25-55_mask.png,0.614686700006132,1,2.3321124241189017,710,2
44-125.png,123-125.png,ds,up,44-125_mask.png,0.885643000001437,1,25.229086771816444,711,1
145-148.png,145-148.png,ss,up,145-148_mask.png,0.7938458999997238,1,2.3321124241189017,712,2
13-225F.png,13-128F.png,sd,up,13-225F_mask.png,0.5772658999921987,1,25.229086771816444,713,2
145-66.png,52-66.png,ds,up,145-66_mask.png,0.609706000002916,1,25.229086771816444,714,1
2_eyes.png,76_eyes.png,isod,inv,2_eyes_mask.png,0.6091048999951454,1,12.637577710370472,715,1
24-76.png,24-76.png,ss,up,24-76_mask.png,0.5280816000013147,1,7.970863616012756,716,1
197-103F.png,135-103F.png,ds,up,197-103F_mask.png,0.7222183000121731,1,25.229086771816444,717,2
129-37F.png,131-37F.png,ds,inv,129-37F_mask.png,0.5649884000013117,1,15.9126704834961,718,2
20-13F.png,20-65F.png,sd,inv,20-13F_mask.png,0.557865299997502,1,17.183151257649243,719,1
192-216F.png,111-216F.png,ds,up,192-216F_mask.png,1.028919299991685,0,25.229086771816444,720,1
13-128F.png,13-225F.png,sd,up,13-128F_mask.png,1.1778991000028327,0,25.229086771816444,721,1
96_eyes.png,96_eyes.png,isos,inv,96_eyes_mask.png,0.5227145000098972,1,14.736125994561542,722,2
197-103F.png,197-103F.png,ss,inv,197-103F_mask.png,0.8612046999915037,1,21.636252618780404,723,1
103-197F.png,103-197F.png,ss,inv,103-197F_mask.png,0.5542746999999508,1,10.036553609986138,724,2
111-216F.png,111-216F.png,ss,up,111-216F_mask.png,0.6435385999939172,1,2.3321124241189017,725,2
220_eyes.png,220_eyes.png,isos,up,220_eyes_mask.png,0.6737638999911724,1,13.646572368403794,726,2
38_eyes.png,9_eyes.png,isod,up,38_eyes_mask.png,0.5020275999995647,1,13.646572368403794,727,2
135-103F.png,135-192F.png,sd,inv,135-103F_mask.png,0.561145800005761,1,15.9126704834961,728,2
147_eyes.png,147_eyes.png,isos,up,147_eyes_mask.png,0.5142800999892643,1,14.736125994561542,729,1
146_eyes.png,87_eyes.png,isod,inv,146_eyes_mask.png,0.5412619999988237,1,11.703185684592045,730,1
139-135F.png,103-197F.png,dd,inv,139-135F_mask.png,0.622798900003545,1,21.636252618780404,731,1
151-87.png,151-146.png,sd,inv,151-87_mask.png,0.6454502999986289,1,17.183151257649243,732,1
123-125.png,123-125.png,ss,up,123-125_mask.png,0.5868487999978242,0,7.381517178581321,733,1
17-9.png,125-9.png,ds,inv,17-9_mask.png,0.6748553999932483,1,17.183151257649243,734,1
197-103F.png,197-192F.png,sd,up,197-103F_mask.png,0.6551787999924272,1,25.229086771816444,735,1
41-208F.png,41-20F.png,sd,up,41-208F_mask.png,0.6115073999972083,1,25.229086771816444,736,2
96-128F.png,96-128F.png,ss,up,96-128F_mask.png,0.8105002999946009,1,2.3321124241189017,737,2
225-30F.png,128-96F.png,dd,up,225-30F_mask.png,0.9359571999957552,1,10.036553609986138,738,1
13_eyes.png,13_eyes.png,isos,up,13_eyes_mask.png,1.1381929000053788,1,14.736125994561542,739,1
197_eyes.png,135_eyes.png,isod,up,197_eyes_mask.png,0.6045565000094939,1,13.646572368403794,740,2
103-197F.png,139-197F.png,ds,up,103-197F_mask.png,1.1078624999936437,1,35.22908677181644,741,1
37_eyes.png,37_eyes.png,isos,inv,37_eyes_mask.png,0.6952057000016794,1,11.703185684592045,742,1
2-8.png,2-93.png,sd,up,2-8_mask.png,0.5549196999927517,1,25.229086771816444,743,2
93_eyes.png,93_eyes.png,isos,inv,93_eyes_mask.png,0.7242325999977766,0,14.736125994561542,744,2
65-208F.png,41-20F.png,dd,up,65-208F_mask.png,0.8547056000097655,1,2.3321124241189017,745,2
131-94F.png,129-37F.png,dd,up,131-94F_mask.png,0.6749669999990147,1,9.294475034930333,746,1
20-65F.png,208-65F.png,ds,up,20-65F_mask.png,0.5831484000082128,1,25.229086771816444,747,2
111-220F.png,192-216F.png,dd,inv,111-220F_mask.png,0.6471788000053493,1,10.036553609986138,748,2
125_eyes.png,100_eyes.png,isod,up,125_eyes_mask.png,0.5971464999893215,1,14.736125994561542,749,1
192-220F.png,192-220F.png,ss,up,192-220F_mask.png,0.5248386999883223,1,19.294475034930333,750,1
24-2.png,24-2.png,ss,inv,24-2_mask.png,0.511243499990087,1,21.636252618780404,751,1
2-93.png,46-93.png,ds,inv,2-93_mask.png,0.4821376999898348,1,15.9126704834961,752,2
9_eyes.png,38_eyes.png,isod,inv,9_eyes_mask.png,0.5585235000035027,0,15.9126704834961,753,2
7_eyes.png,7_eyes.png,isos,inv,7_eyes_mask.png,1.2458996000059415,1,11.703185684592045,754,1
192-220F.png,111-216F.png,dd,inv,192-220F_mask.png,0.7154915999999503,1,31.636252618780404,755,1
24-2.png,160-2.png,ds,inv,24-2_mask.png,0.6699526000011247,1,15.9126704834961,756,2
46-93.png,46-93.png,ss,inv,46-93_mask.png,0.6263830999960192,1,10.036553609986138,757,2
30_eyes.png,96_eyes.png,isod,inv,30_eyes_mask.png,0.809195699999691,0,21.703185684592043,758,1
65_eyes.png,13_eyes.png,isod,up,65_eyes_mask.png,0.5686017000116408,1,23.646572368403795,759,1
160-2.png,160-76.png,sd,inv,160-2_mask.png,0.7530802999972366,1,15.9126704834961,760,1
76_eyes.png,76_eyes.png,isos,up,76_eyes_mask.png,1.0591048000060255,1,23.646572368403795,761,2
225-96F.png,128-30F.png,dd,up,225-96F_mask.png,0.5757676000066567,1,12.332112424118902,762,2
125_eyes.png,100_eyes.png,isod,inv,125_eyes_mask.png,0.6237512999941828,1,25.9126704834961,763,2
65-208F.png,65-20F.png,sd,inv,65-208F_mask.png,0.92618969999603,1,25.9126704834961,764,2
7-55.png,25-147.png,dd,inv,7-55_mask.png,0.6644701000041096,1,19.294475034930333,765,2
147-25.png,146-25.png,ds,up,147-25_mask.png,0.6293574999872362,0,35.22908677181644,766,2
145-148.png,52-148.png,ds,inv,145-148_mask.png,0.7078360000014072,1,25.9126704834961,767,1
