im1name,im2name,cond,ori,mask,rt,acc,contrast,trialno,staircase
208_eyes.png,208_eyes.png,isos,inv,208_eyes_mask.png,0.7000877000100445,1,10.036553609986138,0,2
38_eyes.png,38_eyes.png,isos,up,38_eyes_mask.png,0.5832512000051793,1,10.036553609986138,1,2
9_eyes.png,38_eyes.png,isod,up,9_eyes_mask.png,0.5193631000001915,1,10.036553609986138,2,1
146-25.png,146-7.png,sd,inv,146-25_mask.png,0.7935281000100076,1,10.036553609986138,3,2
128-96F.png,128-96F.png,ss,up,128-96F_mask.png,0.5532588000060059,1,10.036553609986138,4,2
146-25.png,147-25.png,ds,inv,146-25_mask.png,0.5386614000017289,1,8.607263960508302,5,2
24-2.png,160-2.png,ds,up,24-2_mask.png,0.6606147999991663,1,10.036553609986138,6,2
13-225F.png,96-225F.png,ds,up,13-225F_mask.png,0.6488518999831285,1,10.036553609986138,7,1
7-55.png,25-147.png,dd,inv,7-55_mask.png,1.1502540000074077,0,10.036553609986138,8,2
131-37F.png,131-37F.png,ss,up,131-37F_mask.png,0.46352950000436977,1,10.036553609986138,9,1
17-9.png,17-38.png,sd,inv,17-9_mask.png,0.5167345000081696,0,10.036553609986138,10,1
37_eyes.png,37_eyes.png,isos,inv,37_eyes_mask.png,0.5516841000062414,1,10.036553609986138,11,1
52-66.png,52-66.png,ss,inv,52-66_mask.png,0.4250404000049457,1,18.555068267735685,12,2
128-30F.png,225-30F.png,ds,inv,128-30F_mask.png,0.48726880000322126,1,7.970863616012756,13,2
128-96F.png,128-96F.png,ss,inv,128-96F_mask.png,0.5146068999893032,1,14.736125994561542,14,2
20-13F.png,20-65F.png,sd,inv,20-13F_mask.png,0.4776103000040166,1,6.8357455957761015,15,2
123-125.png,123-100.png,sd,up,123-125_mask.png,0.5621544999885373,1,8.607263960508302,16,2
192-220F.png,111-216F.png,dd,up,192-220F_mask.png,0.6349409999966156,1,8.607263960508302,17,1
49-87.png,49-87.png,ss,up,49-87_mask.png,0.49659880000399426,1,8.607263960508302,18,2
9_eyes.png,38_eyes.png,isod,inv,9_eyes_mask.png,0.49282579999999143,0,8.607263960508302,19,2
100_eyes.png,125_eyes.png,isod,inv,100_eyes_mask.png,0.6646636000077706,1,14.736125994561542,20,2
24-2.png,160-2.png,ds,inv,24-2_mask.png,0.526034200011054,1,18.555068267735685,21,1
151-146.png,49-87.png,dd,inv,151-146_mask.png,0.55201680000755,1,10.036553609986138,22,1
55_eyes.png,55_eyes.png,isos,up,55_eyes_mask.png,0.45779279997805133,1,8.607263960508302,23,1
52-66.png,145-148.png,dd,up,52-66_mask.png,0.750788699981058,1,7.970863616012756,24,1
55_eyes.png,147_eyes.png,isod,up,55_eyes_mask.png,0.6161585999943782,1,8.607263960508302,25,2
125_eyes.png,125_eyes.png,isos,up,125_eyes_mask.png,0.469618500006618,1,7.970863616012756,26,2
2_eyes.png,76_eyes.png,isod,inv,2_eyes_mask.png,0.5306656999746338,1,8.607263960508302,27,1
225-96F.png,225-30F.png,sd,inv,225-96F_mask.png,0.5729627999826334,0,14.736125994561542,28,1
208-13F.png,20-65F.png,dd,up,208-13F_mask.png,0.46166239999001846,1,7.970863616012756,29,2
66_eyes.png,66_eyes.png,isos,inv,66_eyes_mask.png,0.6030481000198051,1,11.703185684592045,30,2
125_eyes.png,100_eyes.png,isod,up,125_eyes_mask.png,0.6267962999991141,1,7.970863616012756,31,1
100_eyes.png,100_eyes.png,isos,up,100_eyes_mask.png,1.1527578000095673,1,6.8357455957761015,32,1
125-9.png,125-9.png,ss,inv,125-9_mask.png,0.5619327999884263,1,8.607263960508302,33,1
128-30F.png,128-96F.png,sd,up,128-30F_mask.png,0.5229892999923322,0,8.607263960508302,34,1
96-225F.png,96-225F.png,ss,up,96-225F_mask.png,0.581711799983168,1,6.8357455957761015,35,1
94_eyes.png,37_eyes.png,isod,inv,94_eyes_mask.png,0.6063672000018414,0,7.970863616012756,36,1
52-66.png,145-148.png,dd,inv,52-66_mask.png,0.7656714000040665,1,7.970863616012756,37,1
123-125.png,44-125.png,ds,inv,123-125_mask.png,0.7103443999949377,1,25.229086771816444,38,1
103_eyes.png,192_eyes.png,isod,up,103_eyes_mask.png,0.5930126000021119,1,6.8357455957761015,39,2
49-87.png,151-87.png,ds,up,49-87_mask.png,1.0408284000004642,1,7.970863616012756,40,2
146-7.png,147-7.png,ds,up,146-7_mask.png,0.5263465000025462,1,14.736125994561542,41,1
139-197F.png,103-135F.png,dd,inv,139-197F_mask.png,0.46464299998478964,1,11.703185684592045,42,2
30_eyes.png,30_eyes.png,isos,inv,30_eyes_mask.png,0.4540221999923233,1,11.703185684592045,43,1
111-220F.png,111-216F.png,sd,up,111-220F_mask.png,0.45115749997785315,1,11.703185684592045,44,1
135-192F.png,135-103F.png,sd,up,135-192F_mask.png,0.5201249999809079,1,6.8357455957761015,45,2
17-38.png,17-38.png,ss,inv,17-38_mask.png,0.5944322999857832,1,6.8357455957761015,46,1
197-192F.png,135-103F.png,dd,up,197-192F_mask.png,0.5140629999805242,1,6.8357455957761015,47,2
52-66.png,145-66.png,ds,up,52-66_mask.png,0.6197379999794066,0,6.330327047908198,48,2
17-38.png,125-9.png,dd,up,17-38_mask.png,0.5304527999833226,1,6.330327047908198,49,1
135-103F.png,135-192F.png,sd,inv,135-103F_mask.png,0.5327400999958627,0,23.36370892508618,50,1
49-146.png,49-87.png,sd,up,49-146_mask.png,0.9986548000015318,0,9.294475034930333,51,1
192_eyes.png,103_eyes.png,isod,inv,192_eyes_mask.png,0.5103941000124905,0,9.294475034930333,52,2
160-76.png,24-76.png,ds,inv,160-76_mask.png,0.5375034000026062,1,29.418533354863488,53,1
66_eyes.png,66_eyes.png,isos,up,66_eyes_mask.png,0.6437252000032458,1,6.330327047908198,54,2
38_eyes.png,9_eyes.png,isod,up,38_eyes_mask.png,0.7770281999837607,1,6.330327047908198,55,1
94_eyes.png,94_eyes.png,isos,up,94_eyes_mask.png,1.1432872999866959,1,5.428835233189813,56,2
197_eyes.png,135_eyes.png,isod,up,197_eyes_mask.png,0.792339700012235,1,5.0274402453675116,57,2
123-125.png,123-125.png,ss,up,123-125_mask.png,1.3679995000129566,1,6.330327047908198,58,2
208-13F.png,20-13F.png,ds,up,208-13F_mask.png,0.616701799997827,1,18.555068267735685,59,1
139-135F.png,139-135F.png,ss,inv,139-135F_mask.png,0.6553973999980371,1,6.330327047908198,60,1
20_eyes.png,208_eyes.png,isod,inv,20_eyes_mask.png,0.6133058000123128,1,9.294475034930333,61,1
103-135F.png,103-197F.png,sd,inv,103-135F_mask.png,0.45999609999125823,0,6.330327047908198,62,2
55_eyes.png,55_eyes.png,isos,inv,55_eyes_mask.png,0.41754980001132935,1,18.555068267735685,63,2
25-147.png,25-147.png,ss,inv,25-147_mask.png,0.5121336999873165,1,10.036553609986138,64,2
208-65F.png,20-13F.png,dd,up,208-65F_mask.png,0.5551108999934513,1,5.428835233189813,65,2
129-94F.png,131-94F.png,ds,inv,129-94F_mask.png,0.4283904999902006,1,29.418533354863488,66,1
41-20F.png,65-20F.png,ds,up,41-20F_mask.png,0.5867510999960359,1,7.970863616012756,67,2
131-37F.png,129-37F.png,ds,inv,131-37F_mask.png,0.48276199999963865,1,7.970863616012756,68,2
65_eyes.png,65_eyes.png,isos,up,65_eyes_mask.png,0.527135799988173,1,5.428835233189813,69,1
135-192F.png,197-103F.png,dd,inv,135-192F_mask.png,0.841384500003187,1,5.428835233189813,70,1
7-147.png,7-147.png,ss,up,7-147_mask.png,0.6072195000015199,1,5.428835233189813,71,1
123-100.png,44-125.png,dd,inv,123-100_mask.png,1.030092800006969,1,5.0274402453675116,72,1
148_eyes.png,148_eyes.png,isos,inv,148_eyes_mask.png,1.1168116000189912,1,8.607263960508302,73,1
25-55.png,7-147.png,dd,up,25-55_mask.png,0.7994609999877866,1,5.0274402453675116,74,2
135_eyes.png,197_eyes.png,isod,up,135_eyes_mask.png,0.7270857999974396,1,11.655723435152048,75,2
20_eyes.png,20_eyes.png,isos,up,20_eyes_mask.png,1.0097406000131741,1,5.0274402453675116,76,1
44-125.png,123-100.png,dd,up,44-125_mask.png,0.5607602999953087,1,5.0274402453675116,77,1
145-66.png,145-148.png,sd,inv,145-66_mask.png,0.8018713000055868,1,34.24339792884558,78,1
52-66.png,52-148.png,sd,up,52-66_mask.png,0.5051112999790348,0,7.381517178581321,79,2
129-37F.png,131-37F.png,ds,inv,129-37F_mask.png,0.42036399999051355,1,7.381517178581321,80,2
160-2.png,160-76.png,sd,up,160-2_mask.png,0.6670581000216771,1,15.9126704834961,81,1
111-220F.png,111-220F.png,ss,up,111-220F_mask.png,0.42375869999523275,1,11.655723435152048,82,1
148_eyes.png,66_eyes.png,isod,up,148_eyes_mask.png,0.5104227999981958,1,11.655723435152048,83,1
41-208F.png,41-20F.png,sd,inv,41-208F_mask.png,0.5127721000171732,1,13.330327047908199,84,2
103_eyes.png,192_eyes.png,isod,inv,103_eyes_mask.png,0.45211069998913445,0,7.381517178581321,85,1
208-65F.png,208-65F.png,ss,inv,208-65F_mask.png,0.4333922000078019,1,11.655723435152048,86,1
131-37F.png,129-94F.png,dd,inv,131-37F_mask.png,0.47906529999454506,0,8.607263960508302,87,2
192-220F.png,111-216F.png,dd,inv,192-220F_mask.png,0.5473978999943938,1,15.9126704834961,88,2
30_eyes.png,30_eyes.png,isos,inv,30_eyes_mask.png,0.5335466999968048,1,18.703185684592043,89,1
38_eyes.png,38_eyes.png,isos,inv,38_eyes_mask.png,0.4318401000055019,1,15.9126704834961,90,2
146-25.png,147-25.png,ds,up,146-25_mask.png,0.7416778999904636,1,19.637577710370472,91,1
103-197F.png,103-197F.png,ss,up,103-197F_mask.png,0.5594927000056487,1,11.655723435152048,92,2
197_eyes.png,135_eyes.png,isod,inv,197_eyes_mask.png,0.4888972000044305,0,19.637577710370472,93,2
96-225F.png,96-128F.png,sd,up,96-225F_mask.png,0.5407928999920841,1,18.703185684592043,94,2
135-103F.png,135-103F.png,ss,inv,135-103F_mask.png,0.41443179998896085,1,19.637577710370472,95,2
65-20F.png,65-208F.png,sd,inv,65-20F_mask.png,0.566149399994174,1,6.330327047908198,96,2
96_eyes.png,96_eyes.png,isos,up,96_eyes_mask.png,0.5353137000056449,1,4.655723435152049,97,1
125-9.png,17-38.png,dd,up,125-9_mask.png,0.7371791000186931,0,4.655723435152049,98,1
111-220F.png,111-216F.png,sd,inv,111-220F_mask.png,0.5947297999809962,1,27.24339792884558,99,1
24-2.png,160-76.png,dd,up,24-2_mask.png,0.5305592000077013,1,5.428835233189813,100,1
41-20F.png,65-208F.png,dd,up,41-20F_mask.png,0.6034178000118118,1,4.655723435152049,101,2
44-125.png,123-100.png,dd,inv,44-125_mask.png,0.5947948999819346,1,4.655723435152049,102,1
93_eyes.png,8_eyes.png,isod,inv,93_eyes_mask.png,0.6827436000166927,1,11.703185684592045,103,1
65_eyes.png,13_eyes.png,isod,inv,65_eyes_mask.png,0.7825656000059098,0,12.637577710370472,104,2
197_eyes.png,197_eyes.png,isos,inv,197_eyes_mask.png,0.3980798999837134,1,20.036520266739068,105,2
145-66.png,52-148.png,dd,up,145-66_mask.png,0.653771199984476,1,4.311490469647435,106,2
46-8.png,2-8.png,ds,inv,46-8_mask.png,0.5630778000049759,1,23.36370892508618,107,1
87_eyes.png,146_eyes.png,isod,inv,87_eyes_mask.png,0.4521314000012353,0,18.555068267735685,108,2
160-76.png,160-2.png,sd,inv,160-76_mask.png,0.7533697999897413,1,21.636252618780404,109,1
147_eyes.png,147_eyes.png,isos,inv,147_eyes_mask.png,0.5231120999960694,0,9.294475034930333,110,1
129-37F.png,129-37F.png,ss,inv,129-37F_mask.png,0.6619221000000834,0,4.311490469647435,111,1
41-20F.png,41-20F.png,ss,up,41-20F_mask.png,0.5787907000049017,1,5.0274402453675116,112,1
100_eyes.png,100_eyes.png,isos,up,100_eyes_mask.png,0.658775699994294,1,4.655723435152049,113,2
192-220F.png,111-220F.png,ds,inv,192-220F_mask.png,2.2717489000060596,1,5.862277928868478,114,2
13-225F.png,13-128F.png,sd,up,13-225F_mask.png,1.412416100007249,1,12.637577710370472,115,1
41-20F.png,41-208F.png,sd,up,41-20F_mask.png,0.5940733999887016,0,10.036553609986138,116,1
197-192F.png,135-103F.png,dd,inv,197-192F_mask.png,0.5057493000058457,1,12.637577710370472,117,2
7-55.png,7-147.png,sd,up,7-55_mask.png,0.6130544999905396,1,11.703185684592045,118,2
13-225F.png,13-225F.png,ss,up,13-225F_mask.png,0.5241410000016913,1,4.655723435152049,119,1
44-125.png,44-125.png,ss,inv,44-125_mask.png,0.7820844999805558,1,5.0274402453675116,120,1
20_eyes.png,208_eyes.png,isod,inv,20_eyes_mask.png,0.7183914999768604,1,17.183151257649243,121,1
94_eyes.png,37_eyes.png,isod,up,94_eyes_mask.png,0.5534014000149909,1,4.311490469647435,122,2
123-125.png,44-100.png,dd,inv,123-125_mask.png,0.7787430000025779,1,10.036553609986138,123,2
13-128F.png,13-225F.png,sd,up,13-128F_mask.png,0.5630810000002384,1,8.607263960508302,124,2
151-87.png,49-87.png,ds,up,151-87_mask.png,0.7560994999948889,1,17.183151257649243,125,1
216_eyes.png,216_eyes.png,isos,up,216_eyes_mask.png,0.5018316000059713,1,3.992709259641317,126,2
128-30F.png,225-30F.png,ds,up,128-30F_mask.png,0.5529017000226304,1,14.736125994561542,127,1
208_eyes.png,208_eyes.png,isos,up,208_eyes_mask.png,0.5624657000007574,0,4.311490469647435,128,1
65_eyes.png,65_eyes.png,isos,inv,65_eyes_mask.png,0.4597753999987617,1,14.736125994561542,129,1
128_eyes.png,225_eyes.png,isod,up,128_eyes_mask.png,0.5210985000012442,1,3.6974979636981815,130,2
49-146.png,49-146.png,ss,inv,49-146_mask.png,0.5797858999867458,1,8.607263960508302,131,2
139-197F.png,139-197F.png,ss,inv,139-197F_mask.png,0.5631137999880593,1,7.970863616012756,132,2
146_eyes.png,87_eyes.png,isod,up,146_eyes_mask.png,0.6605049000063445,1,5.0274402453675116,133,1
41-20F.png,65-20F.png,ds,inv,41-20F_mask.png,0.4814036000170745,1,21.636252618780404,134,1
103-135F.png,139-197F.png,dd,inv,103-135F_mask.png,0.6299806000024546,1,4.655723435152049,135,1
44-100.png,44-125.png,sd,inv,44-100_mask.png,0.652247099991655,1,5.428835233189813,136,2
94_eyes.png,37_eyes.png,isod,up,94_eyes_mask.png,0.5138497000152711,1,4.655723435152049,137,1
94_eyes.png,94_eyes.png,isos,inv,94_eyes_mask.png,0.3892102999961935,1,25.229086771816444,138,2
17-38.png,125-38.png,ds,up,17-38_mask.png,0.8850714000000153,1,7.381517178581321,139,2
49-146.png,49-146.png,ss,up,49-146_mask.png,0.4970358999853488,1,3.992709259641317,140,2
197-103F.png,135-103F.png,ds,up,197-103F_mask.png,0.47672510001575574,0,6.8357455957761015,141,2
123-100.png,44-100.png,ds,inv,123-100_mask.png,0.4651875999988988,1,5.0274402453675116,142,2
129-94F.png,129-94F.png,ss,up,129-94F_mask.png,0.493783700017957,0,3.6974979636981815,143,2
111-220F.png,192-216F.png,dd,inv,111-220F_mask.png,0.5393896999885328,1,7.381517178581321,144,2
41-208F.png,65-20F.png,dd,up,41-208F_mask.png,0.4775025999988429,0,4.311490469647435,145,1
7_eyes.png,25_eyes.png,isod,inv,7_eyes_mask.png,0.6261448000150267,1,21.636252618780404,146,2
225-30F.png,128-30F.png,ds,inv,225-30F_mask.png,0.6004987000196707,0,20.036520266739068,147,1
25_eyes.png,7_eyes.png,isod,inv,25_eyes_mask.png,0.6957243000215385,1,11.703185684592045,148,1
111-216F.png,111-216F.png,ss,up,111-216F_mask.png,0.49142390000633895,1,5.0274402453675116,149,1
96_eyes.png,96_eyes.png,isos,inv,96_eyes_mask.png,0.3674319999990985,1,10.036553609986138,150,1
66_eyes.png,148_eyes.png,isod,up,66_eyes_mask.png,0.6004042999993544,1,4.311490469647435,151,1
96-128F.png,13-225F.png,dd,up,96-128F_mask.png,0.5037902999902144,1,4.311490469647435,152,2
160-2.png,160-2.png,ss,up,160-2_mask.png,0.5935484000074212,0,4.655723435152049,153,1
128-96F.png,225-30F.png,dd,inv,128-96F_mask.png,0.6013163999887183,1,4.311490469647435,154,1
192-216F.png,192-220F.png,sd,inv,192-216F_mask.png,0.6164229999994859,1,4.655723435152049,155,2
49-87.png,151-146.png,dd,inv,49-87_mask.png,0.5334431999945082,1,3.992709259641317,156,1
160-76.png,24-76.png,ds,up,160-76_mask.png,0.5115210000076331,1,12.637577710370472,157,1
49-87.png,49-146.png,sd,inv,49-87_mask.png,0.7144177000154741,1,4.311490469647435,158,2
146-25.png,146-7.png,sd,up,146-25_mask.png,0.4933358999842312,1,10.837880352311993,159,2
220_eyes.png,220_eyes.png,isos,up,220_eyes_mask.png,0.6094822000013664,1,3.992709259641317,160,1
93_eyes.png,8_eyes.png,isod,up,93_eyes_mask.png,0.7425704000052065,1,3.4241138792010055,161,2
129-94F.png,129-37F.png,sd,inv,129-94F_mask.png,0.6081079999858048,0,23.36370892508618,162,1
41-208F.png,41-20F.png,sd,up,41-208F_mask.png,0.9752033999830019,1,11.703185684592045,163,1
8_eyes.png,8_eyes.png,isos,inv,8_eyes_mask.png,0.7519169000152033,1,8.607263960508302,164,1
13-128F.png,96-128F.png,ds,inv,13-128F_mask.png,0.5210453000036068,0,3.992709259641317,165,2
44-100.png,123-100.png,ds,inv,44-100_mask.png,0.3952827999892179,1,29.418533354863488,166,1
76_eyes.png,76_eyes.png,isos,inv,76_eyes_mask.png,0.4191380999982357,1,20.036520266739068,167,2
24-2.png,160-76.png,dd,inv,24-2_mask.png,0.4414059999980964,0,6.8357455957761015,168,2
208-65F.png,208-65F.png,ss,up,208-65F_mask.png,0.4630571999878157,1,3.992709259641317,169,2
20-13F.png,20-13F.png,ss,inv,20-13F_mask.png,0.555864299996756,1,9.294475034930333,170,2
8_eyes.png,8_eyes.png,isos,up,8_eyes_mask.png,0.6054366999887861,1,3.6974979636981815,171,1
17-9.png,17-38.png,sd,up,17-9_mask.png,0.5806509999965783,0,10.036553609986138,172,1
37_eyes.png,94_eyes.png,isod,inv,37_eyes_mask.png,0.5171334999904502,0,18.555068267735685,173,2
93_eyes.png,93_eyes.png,isos,inv,93_eyes_mask.png,0.6557130999863148,1,18.229086771816444,174,2
52-148.png,145-66.png,dd,up,52-148_mask.png,0.8290716000192333,1,3.6974979636981815,175,2
13-128F.png,13-225F.png,sd,inv,13-128F_mask.png,0.5715316999994684,0,22.418533354863488,176,1
125-38.png,17-38.png,ds,inv,125-38_mask.png,2.0523076000099536,0,0.01,177,2
38_eyes.png,9_eyes.png,isod,up,38_eyes_mask.png,0.39341499999864027,1,0.01,178,1
135-192F.png,197-192F.png,ds,up,135-192F_mask.png,0.9213247000006959,1,6.646572368403794,179,1
160-2.png,160-2.png,ss,inv,160-2_mask.png,1.1156671999779064,0,0.970863616012756,180,2
103-135F.png,139-135F.png,ds,up,103-135F_mask.png,0.8543825999950059,1,8.607263960508302,181,2
123-100.png,123-100.png,ss,up,123-100_mask.png,0.643692599987844,1,0.01,182,2
131-94F.png,131-94F.png,ss,inv,131-94F_mask.png,0.7213072000013199,0,3.6974979636981815,183,1
146_eyes.png,146_eyes.png,isos,up,146_eyes_mask.png,0.7005905999976676,0,3.4241138792010055,184,2
131-94F.png,131-37F.png,sd,up,131-94F_mask.png,1.2638627999986056,0,7.381517178581321,185,2
13_eyes.png,65_eyes.png,isod,up,13_eyes_mask.png,0.5727078999916557,1,3.6974979636981815,186,2
44-100.png,123-100.png,ds,up,44-100_mask.png,1.109334700013278,1,4.703185684592045,187,2
30_eyes.png,96_eyes.png,isod,inv,30_eyes_mask.png,0.39271839999128133,1,0.970863616012756,188,1
46-93.png,2-8.png,dd,up,46-93_mask.png,0.6645515999989584,0,0.01,189,1
66_eyes.png,66_eyes.png,isos,up,66_eyes_mask.png,0.4218512999941595,0,0.01,190,2
125-38.png,125-38.png,ss,inv,125-38_mask.png,0.4445096999988891,1,0.01,191,1
131-37F.png,131-37F.png,ss,inv,131-37F_mask.png,0.42375379998702556,1,7.970863616012756,192,2
20_eyes.png,20_eyes.png,isos,inv,20_eyes_mask.png,0.390480000001844,1,25.229086771816444,193,2
147_eyes.png,55_eyes.png,isod,up,147_eyes_mask.png,0.5420472999976482,1,3.6974979636981815,194,1
7-147.png,25-147.png,ds,up,7-147_mask.png,0.5197330999944825,1,11.703185684592045,195,2
100_eyes.png,125_eyes.png,isod,up,100_eyes_mask.png,0.770826499996474,1,3.4241138792010055,196,2
197-103F.png,197-103F.png,ss,up,197-103F_mask.png,0.44341849998454563,1,5.428835233189813,197,1
197_eyes.png,197_eyes.png,isos,up,197_eyes_mask.png,0.5054262999910861,1,3.4241138792010055,198,1
25-147.png,7-55.png,dd,up,25-147_mask.png,0.5726689999864902,1,3.6974979636981815,199,2
151-146.png,49-146.png,ds,up,151-146_mask.png,1.0052713000040967,0,9.294475034930333,200,2
197-192F.png,197-103F.png,sd,up,197-192F_mask.png,0.5953842999879271,0,13.646572368403794,201,1
20-13F.png,208-13F.png,ds,inv,20-13F_mask.png,0.43502589999116026,1,29.418533354863488,202,1
135-192F.png,197-103F.png,dd,up,135-192F_mask.png,0.7770306000020355,1,3.4241138792010055,203,2
46-93.png,46-93.png,ss,inv,46-93_mask.png,0.5454153999744449,1,7.381517178581321,204,2
96_eyes.png,96_eyes.png,isos,up,96_eyes_mask.png,0.6435098999936599,0,3.4241138792010055,205,2
52-66.png,52-148.png,sd,inv,52-66_mask.png,0.5050461999780964,0,4.655723435152049,206,2
20-65F.png,20-13F.png,sd,inv,20-65F_mask.png,0.6044510999927297,1,5.428835233189813,207,2
146-7.png,146-25.png,sd,up,146-7_mask.png,0.6277716000040527,1,14.736125994561542,208,2
146_eyes.png,87_eyes.png,isod,inv,146_eyes_mask.png,0.6343035000027157,1,7.970863616012756,209,1
192-216F.png,111-220F.png,dd,inv,192-216F_mask.png,0.4802107999857981,0,6.8357455957761015,210,2
129-37F.png,131-94F.png,dd,up,129-37F_mask.png,0.7245376000064425,1,5.0274402453675116,211,1
25-147.png,25-147.png,ss,up,25-147_mask.png,0.5574162999982946,1,4.655723435152049,212,1
145-148.png,145-148.png,ss,up,145-148_mask.png,0.5410922000010032,1,3.170943154762479,213,2
96-225F.png,13-225F.png,ds,inv,96-225F_mask.png,0.6227162000141107,1,5.0274402453675116,214,2
65-208F.png,41-20F.png,dd,inv,65-208F_mask.png,0.6213611999992281,0,4.311490469647435,215,1
93_eyes.png,93_eyes.png,isos,inv,93_eyes_mask.png,0.47641510001267307,1,21.636252618780404,216,2
25_eyes.png,25_eyes.png,isos,inv,25_eyes_mask.png,0.4403529000119306,1,7.381517178581321,217,1
7-55.png,7-55.png,ss,up,7-55_mask.png,0.9581564000109211,1,3.170943154762479,218,2
125_eyes.png,100_eyes.png,isod,inv,125_eyes_mask.png,0.6309672000061255,1,20.036520266739068,219,2
131-94F.png,129-37F.png,dd,inv,131-94F_mask.png,0.541430000012042,1,5.0274402453675116,220,1
147-25.png,147-7.png,sd,up,147-25_mask.png,0.6068780999921728,1,12.637577710370472,221,2
76_eyes.png,2_eyes.png,isod,inv,76_eyes_mask.png,0.5506643000117037,1,18.555068267735685,222,2
192-216F.png,192-220F.png,sd,up,192-216F_mask.png,0.5596875000046566,1,18.555068267735685,223,1
123-100.png,123-125.png,sd,inv,123-100_mask.png,0.41650530000333674,0,27.24339792884558,224,1
9_eyes.png,38_eyes.png,isod,up,9_eyes_mask.png,0.5909955999813974,1,3.6974979636981815,225,2
49-146.png,151-146.png,ds,inv,49-146_mask.png,0.4463711999997031,1,29.418533354863488,226,1
100_eyes.png,100_eyes.png,isos,inv,100_eyes_mask.png,0.5725338000047486,0,6.8357455957761015,227,1
7_eyes.png,7_eyes.png,isos,up,7_eyes_mask.png,0.6135428999841679,0,3.6974979636981815,228,2
96-128F.png,96-225F.png,sd,inv,96-128F_mask.png,0.5403845999971963,0,29.418533354863488,229,1
7-55.png,7-55.png,ss,inv,7-55_mask.png,0.8221086999983527,1,4.655723435152049,230,1
225-96F.png,128-96F.png,ds,up,225-96F_mask.png,1.0447255999897607,1,15.9126704834961,231,1
216_eyes.png,216_eyes.png,isos,up,216_eyes_mask.png,0.7147946000040974,1,3.4241138792010055,232,1
44-125.png,123-125.png,ds,inv,44-125_mask.png,1.0456487000046764,0,4.655723435152049,233,2
2-8.png,46-93.png,dd,inv,2-8_mask.png,0.5073514000105206,1,9.294475034930333,234,2
103_eyes.png,192_eyes.png,isod,up,103_eyes_mask.png,0.510691899980884,1,3.170943154762479,235,1
37_eyes.png,94_eyes.png,isod,inv,37_eyes_mask.png,0.7136727999895811,1,8.607263960508302,236,1
17-9.png,125-9.png,ds,up,17-9_mask.png,0.508182499994291,1,14.736125994561542,237,1
131-37F.png,129-94F.png,dd,up,131-37F_mask.png,0.6229585999972187,1,4.655723435152049,238,1
135-192F.png,135-192F.png,ss,inv,135-192F_mask.png,0.8776938999944832,1,4.311490469647435,239,1
131-94F.png,129-37F.png,dd,up,131-94F_mask.png,0.5960022000072058,1,4.311490469647435,240,1
76_eyes.png,76_eyes.png,isos,up,76_eyes_mask.png,0.5719423000118695,1,3.170943154762479,241,1
37_eyes.png,94_eyes.png,isod,up,37_eyes_mask.png,0.45201959999394603,0,3.992709259641317,242,2
208-65F.png,208-13F.png,sd,up,208-65F_mask.png,1.1292309999989811,1,13.646572368403794,243,1
25-55.png,7-147.png,dd,inv,25-55_mask.png,0.6596860999998171,1,4.311490469647435,244,1
20_eyes.png,20_eyes.png,isos,inv,20_eyes_mask.png,0.4570661000034306,1,7.970863616012756,245,1
93_eyes.png,8_eyes.png,isod,inv,93_eyes_mask.png,0.5425317999906838,1,7.381517178581321,246,1
123-100.png,123-100.png,ss,inv,123-100_mask.png,0.760000799986301,1,3.992709259641317,247,1
100_eyes.png,125_eyes.png,isod,inv,100_eyes_mask.png,0.6011713999905623,0,17.183151257649243,248,2
52-148.png,52-66.png,sd,up,52-148_mask.png,0.6483437999850139,1,10.837880352311993,249,2
46-8.png,2-93.png,dd,up,46-8_mask.png,0.822042900021188,1,3.992709259641317,250,1
128_eyes.png,128_eyes.png,isos,up,128_eyes_mask.png,0.5651832000003196,1,4.655723435152049,251,2
20-65F.png,20-65F.png,ss,inv,20-65F_mask.png,0.6213549999811221,1,3.6974979636981815,252,1
128_eyes.png,128_eyes.png,isos,inv,128_eyes_mask.png,0.9400471999833826,1,21.636252618780404,253,2
24-2.png,24-76.png,sd,up,24-2_mask.png,0.7015859000093769,1,13.646572368403794,254,1
128-30F.png,128-30F.png,ss,inv,128-30F_mask.png,0.7044060999760404,1,7.970863616012756,255,2
46-8.png,46-8.png,ss,up,46-8_mask.png,0.7637182000034954,1,2.9364912632757605,256,2
147-25.png,146-25.png,ds,up,147-25_mask.png,0.6686610999749973,0,10.036553609986138,257,2
2_eyes.png,76_eyes.png,isod,up,2_eyes_mask.png,0.9536718999734148,0,4.311490469647435,258,2
147-7.png,146-25.png,dd,up,147-7_mask.png,0.627010700001847,1,2.9364912632757605,259,2
128-96F.png,128-30F.png,sd,up,128-96F_mask.png,0.5373319999780506,0,13.646572368403794,260,2
30_eyes.png,30_eyes.png,isos,up,30_eyes_mask.png,0.6916777000005823,1,12.027440245367512,261,2
65-208F.png,65-20F.png,sd,inv,65-208F_mask.png,0.6874468000023626,0,5.428835233189813,262,2
65-208F.png,65-208F.png,ss,inv,65-208F_mask.png,0.7474694999982603,1,7.381517178581321,263,2
20-13F.png,208-13F.png,ds,up,20-13F_mask.png,0.9007127999793738,1,12.637577710370472,264,1
128_eyes.png,128_eyes.png,isos,inv,128_eyes_mask.png,0.39237600000342354,1,6.8357455957761015,265,1
7-147.png,7-55.png,sd,inv,7-147_mask.png,0.5520623000047635,1,31.76733339253797,266,1
65-20F.png,41-20F.png,ds,inv,65-20F_mask.png,0.5190291999897454,1,6.8357455957761015,267,2
76_eyes.png,76_eyes.png,isos,inv,76_eyes_mask.png,0.3861396000138484,1,20.036520266739068,268,2
24-2.png,24-76.png,sd,inv,24-2_mask.png,0.5700927999860141,1,29.418533354863488,269,1
139-135F.png,103-135F.png,ds,up,139-135F_mask.png,0.7627228000201285,1,19.637577710370472,270,1
111-220F.png,192-220F.png,ds,inv,111-220F_mask.png,0.4040668000234291,1,29.418533354863488,271,1
24-76.png,24-76.png,ss,up,24-76_mask.png,0.49971000000368804,1,3.992709259641317,272,1
197-192F.png,197-103F.png,sd,inv,197-192F_mask.png,0.7915793000138365,1,6.330327047908198,273,2
96-128F.png,13-225F.png,dd,inv,96-128F_mask.png,0.9271310000040103,1,10.697497963698181,274,1
20-13F.png,208-65F.png,dd,inv,20-13F_mask.png,0.7533473999937996,0,6.8357455957761015,275,2
139-197F.png,103-135F.png,dd,up,139-197F_mask.png,0.8826754000037909,0,2.9364912632757605,276,2
220_eyes.png,216_eyes.png,isod,up,220_eyes_mask.png,0.5432068000081927,1,2.9364912632757605,277,1
197_eyes.png,135_eyes.png,isod,up,197_eyes_mask.png,0.633152099995641,0,2.9364912632757605,278,1
25-147.png,7-55.png,dd,inv,25-147_mask.png,0.5909968999912962,1,16.294475034930333,279,2
37_eyes.png,37_eyes.png,isos,up,37_eyes_mask.png,0.4229633999930229,1,10.17094315476248,280,1
2-8.png,2-8.png,ss,up,2-8_mask.png,0.508978500001831,1,10.17094315476248,281,2
103-197F.png,139-197F.png,ds,inv,103-197F_mask.png,0.6084528000210412,0,12.862277928868478,282,2
46-8.png,2-8.png,ds,up,46-8_mask.png,0.5276661000098102,1,25.555068267735685,283,2
139-197F.png,139-197F.png,ss,up,139-197F_mask.png,0.4665562000009231,1,10.697497963698181,284,1
25_eyes.png,7_eyes.png,isod,inv,25_eyes_mask.png,0.6153747999924235,1,13.330327047908199,285,1
13-225F.png,96-225F.png,ds,inv,13-225F_mask.png,0.8459593000006862,1,36.418533354863484,286,1
192_eyes.png,103_eyes.png,isod,inv,192_eyes_mask.png,0.508035300008487,0,25.555068267735685,287,2
2-8.png,2-93.png,sd,up,2-8_mask.png,0.5260667999973521,1,12.637577710370472,288,1
147-7.png,147-25.png,sd,up,147-7_mask.png,0.5600514000107069,1,18.555068267735685,289,2
76_eyes.png,2_eyes.png,isod,inv,76_eyes_mask.png,0.4333471999852918,0,18.555068267735685,290,2
20-13F.png,20-13F.png,ss,up,20-13F_mask.png,0.8076161999779288,1,3.6974979636981815,291,1
87_eyes.png,146_eyes.png,isod,up,87_eyes_mask.png,0.494702599971788,1,5.0274402453675116,292,2
20_eyes.png,20_eyes.png,isos,up,20_eyes_mask.png,0.5850262000167277,1,3.170943154762479,293,1
146-7.png,147-25.png,dd,inv,146-7_mask.png,0.6650837000051979,1,3.6974979636981815,294,1
55_eyes.png,55_eyes.png,isos,up,55_eyes_mask.png,0.5499536999850534,0,4.655723435152049,295,2
7-147.png,7-55.png,sd,up,7-147_mask.png,0.5432610999851022,1,17.183151257649243,296,2
103-197F.png,103-197F.png,ss,inv,103-197F_mask.png,0.4649397000030149,1,9.294475034930333,297,2
96_eyes.png,96_eyes.png,isos,inv,96_eyes_mask.png,0.5183112999948207,1,23.36370892508618,298,2
216_eyes.png,220_eyes.png,isod,inv,216_eyes_mask.png,0.5933053999906406,1,6.330327047908198,299,1
146-7.png,147-7.png,ds,inv,146-7_mask.png,0.544929099996807,1,5.862277928868478,300,2
96-128F.png,96-225F.png,sd,up,96-128F_mask.png,0.6266421000182163,1,11.703185684592045,301,1
125-9.png,17-38.png,dd,inv,125-9_mask.png,0.5933121999842115,0,3.4241138792010055,302,1
41-208F.png,41-208F.png,ss,inv,41-208F_mask.png,0.6872752000053879,0,3.6974979636981815,303,1
145-148.png,52-66.png,dd,up,145-148_mask.png,0.5792922000109684,1,3.170943154762479,304,2
197-103F.png,135-192F.png,dd,up,197-103F_mask.png,0.787033300002804,1,3.6974979636981815,305,1
125-9.png,17-9.png,ds,up,125-9_mask.png,0.42705430000205524,1,14.736125994561542,306,2
131-37F.png,131-94F.png,sd,inv,131-37F_mask.png,0.5371964999940246,0,29.418533354863488,307,1
8_eyes.png,93_eyes.png,isod,up,8_eyes_mask.png,0.98776440002257,1,2.9364912632757605,308,1
44-100.png,44-100.png,ss,inv,44-100_mask.png,0.5881506000005174,1,8.607263960508302,309,2
49-146.png,151-87.png,dd,up,49-146_mask.png,0.4843252999999095,0,3.4241138792010055,310,1
25_eyes.png,25_eyes.png,isos,up,25_eyes_mask.png,0.656639000022551,1,2.9364912632757605,311,1
96_eyes.png,30_eyes.png,isod,inv,96_eyes_mask.png,0.7903519000101369,0,5.862277928868478,312,1
24-76.png,160-2.png,dd,inv,24-76_mask.png,0.6381687000102829,1,7.970863616012756,313,2
151-87.png,151-146.png,sd,inv,151-87_mask.png,0.7719512000039686,1,5.428835233189813,314,2
147_eyes.png,147_eyes.png,isos,inv,147_eyes_mask.png,0.6210645999817643,1,7.381517178581321,315,1
46-93.png,46-8.png,sd,inv,46-93_mask.png,0.5879596000013407,1,29.418533354863488,316,1
216_eyes.png,220_eyes.png,isod,up,216_eyes_mask.png,0.5803730000043288,1,5.862277928868478,317,2
147-7.png,146-25.png,dd,inv,147-7_mask.png,0.7887029999983497,0,7.381517178581321,318,2
65-20F.png,65-20F.png,ss,up,65-20F_mask.png,0.7165257000015117,1,2.9364912632757605,319,2
197-192F.png,197-192F.png,ss,up,197-192F_mask.png,1.5030489999917336,1,3.6974979636981815,320,1
9_eyes.png,9_eyes.png,isos,inv,9_eyes_mask.png,0.6026186999806669,1,6.8357455957761015,321,1
192_eyes.png,103_eyes.png,isod,up,192_eyes_mask.png,0.8904892999853473,1,2.9364912632757605,322,1
147-7.png,146-7.png,ds,up,147-7_mask.png,1.1578964999935124,1,13.646572368403794,323,2
87_eyes.png,146_eyes.png,isod,inv,87_eyes_mask.png,0.33534119999967515,0,21.636252618780404,324,2
46-93.png,2-93.png,ds,inv,46-93_mask.png,0.6092136999941431,0,5.0274402453675116,325,2
216_eyes.png,216_eyes.png,isos,inv,216_eyes_mask.png,0.42487469999468885,1,23.36370892508618,326,2
103_eyes.png,103_eyes.png,isos,up,103_eyes_mask.png,0.4792936000158079,1,5.0274402453675116,327,2
145-66.png,52-66.png,ds,up,145-66_mask.png,0.8036482000024989,1,10.837880352311993,328,1
52-148.png,145-148.png,ds,inv,52-148_mask.png,0.48288990001310594,1,29.418533354863488,329,1
151-146.png,151-146.png,ss,inv,151-146_mask.png,1.135103100008564,0,4.311490469647435,330,1
65-20F.png,41-208F.png,dd,up,65-20F_mask.png,0.8809528000128921,0,2.9364912632757605,331,2
123-100.png,44-100.png,ds,up,123-100_mask.png,0.6131882999907248,1,10.837880352311993,332,1
160-76.png,160-76.png,ss,up,160-76_mask.png,0.4922266000066884,1,3.170943154762479,333,2
197-192F.png,135-192F.png,ds,inv,197-192F_mask.png,0.5439850999973714,1,29.418533354863488,334,1
44-125.png,44-100.png,sd,inv,44-125_mask.png,0.8812231000047177,1,5.862277928868478,335,2
65-20F.png,41-208F.png,dd,inv,65-20F_mask.png,0.8303763000003528,0,9.294475034930333,336,2
24-76.png,24-2.png,sd,inv,24-76_mask.png,0.540639300015755,0,5.428835233189813,337,2
66_eyes.png,148_eyes.png,isod,inv,66_eyes_mask.png,0.422598500008462,0,23.36370892508618,338,2
146-25.png,146-25.png,ss,inv,146-25_mask.png,0.47715679998509586,1,10.837880352311993,339,2
24-76.png,24-2.png,sd,up,24-76_mask.png,0.42560000001685694,0,12.637577710370472,340,2
147_eyes.png,55_eyes.png,isod,inv,147_eyes_mask.png,0.6884332000045106,1,6.330327047908198,341,1
197-103F.png,197-192F.png,sd,inv,197-103F_mask.png,0.38846940000075847,0,29.418533354863488,342,1
125-38.png,17-38.png,ds,up,125-38_mask.png,0.5885727999848314,1,10.036553609986138,343,1
7-147.png,25-55.png,dd,inv,7-147_mask.png,0.5967334000160918,1,5.0274402453675116,344,1
216_eyes.png,220_eyes.png,isod,inv,216_eyes_mask.png,0.5965996000159066,1,6.330327047908198,345,1
25-147.png,7-147.png,ds,inv,25-147_mask.png,0.48437739998917095,1,6.8357455957761015,346,2
129-94F.png,129-37F.png,sd,up,129-94F_mask.png,0.5042760999931488,0,10.036553609986138,347,1
2-93.png,46-93.png,ds,up,2-93_mask.png,0.5555987999832723,0,11.703185684592045,348,1
41-20F.png,41-208F.png,sd,inv,41-20F_mask.png,0.7009248999820556,1,6.330327047908198,349,2
65-20F.png,65-208F.png,sd,up,65-20F_mask.png,0.7602940000069793,1,5.637577710370472,350,1
93_eyes.png,8_eyes.png,isod,up,93_eyes_mask.png,1.0255328000057489,1,2.7193741793648707,351,1
148_eyes.png,148_eyes.png,isos,up,148_eyes_mask.png,1.3523372999916319,0,2.7193741793648707,352,1
147-7.png,147-7.png,ss,up,147-7_mask.png,0.5939475999912247,1,2.9364912632757605,353,2
131-94F.png,129-94F.png,ds,inv,131-94F_mask.png,0.7375018000020646,0,0.01,354,2
160-76.png,24-2.png,dd,up,160-76_mask.png,0.6355692000070121,1,3.6974979636981815,355,1
25-55.png,7-55.png,ds,inv,25-55_mask.png,0.449558899999829,1,29.418533354863488,356,1
44-100.png,123-125.png,dd,up,44-100_mask.png,0.6709702999796718,1,3.4241138792010055,357,1
192_eyes.png,192_eyes.png,isos,inv,192_eyes_mask.png,0.49993459999677725,1,5.862277928868478,358,1
129-37F.png,129-94F.png,sd,inv,129-37F_mask.png,0.4312540999962948,0,29.418533354863488,359,1
9_eyes.png,9_eyes.png,isos,inv,9_eyes_mask.png,0.39796609999029897,1,25.229086771816444,360,2
131-94F.png,131-94F.png,ss,up,131-94F_mask.png,0.4620627000113018,1,3.4241138792010055,361,1
30_eyes.png,30_eyes.png,isos,up,30_eyes_mask.png,0.955417099990882,0,2.9364912632757605,362,1
96_eyes.png,30_eyes.png,isod,up,96_eyes_mask.png,0.5970130000205245,1,5.0274402453675116,363,2
65-20F.png,65-20F.png,ss,inv,65-20F_mask.png,0.7166357999958564,0,4.655723435152049,364,1
37_eyes.png,37_eyes.png,isos,inv,37_eyes_mask.png,0.6877091999922413,1,0.01,365,1
93_eyes.png,93_eyes.png,isos,up,93_eyes_mask.png,0.6518935000058264,1,4.655723435152049,366,2
160-76.png,160-2.png,sd,up,160-76_mask.png,0.641528100008145,1,15.9126704834961,367,2
192-216F.png,111-220F.png,dd,up,192-216F_mask.png,0.631209699989995,0,2.9364912632757605,368,2
13-128F.png,13-128F.png,ss,up,13-128F_mask.png,0.5731643000035547,0,0.01,369,1
135-103F.png,197-103F.png,ds,up,135-103F_mask.png,0.4938502000004519,1,14.736125994561542,370,2
2_eyes.png,76_eyes.png,isod,up,2_eyes_mask.png,0.38605030000326224,0,0.01,371,1
87_eyes.png,87_eyes.png,isos,inv,87_eyes_mask.png,0.6661896999867167,1,23.36370892508618,372,2
8_eyes.png,8_eyes.png,isos,up,8_eyes_mask.png,0.6873880000202917,1,4.311490469647435,373,2
123-125.png,123-125.png,ss,inv,123-125_mask.png,1.2434981999977026,1,10.036553609986138,374,2
111-220F.png,192-216F.png,dd,up,111-220F_mask.png,0.49682189998566173,0,3.170943154762479,375,2
49-146.png,151-87.png,dd,inv,49-146_mask.png,0.8365382000047248,1,3.0365536099861377,376,2
197_eyes.png,135_eyes.png,isod,inv,197_eyes_mask.png,0.5788547999982256,1,16.36370892508618,377,2
96-128F.png,13-128F.png,ds,inv,96-128F_mask.png,0.4671831000014208,1,30.04249644293254,378,1
128-30F.png,225-96F.png,dd,inv,128-30F_mask.png,0.5764217000105418,1,5.428835233189813,379,1
44-100.png,44-100.png,ss,up,44-100_mask.png,0.3530237999802921,0,0.01,380,2
147-7.png,147-7.png,ss,inv,147-7_mask.png,0.4186080000072252,1,0.01,381,1
225_eyes.png,128_eyes.png,isod,up,225_eyes_mask.png,0.6175441000086721,1,0.01,382,2
24-76.png,160-76.png,ds,up,24-76_mask.png,0.6564697000139859,1,6.646572368403794,383,2
160-76.png,160-76.png,ss,inv,160-76_mask.png,0.39750720001757145,1,5.0274402453675116,384,1
220_eyes.png,216_eyes.png,isod,up,220_eyes_mask.png,0.49354910000693053,1,3.170943154762479,385,1
197-103F.png,135-192F.png,dd,inv,197-103F_mask.png,0.6652766999904998,1,4.655723435152049,386,1
87_eyes.png,146_eyes.png,isod,up,87_eyes_mask.png,0.5342227000219282,1,4.311490469647435,387,2
7_eyes.png,25_eyes.png,isod,up,7_eyes_mask.png,0.5278965999896172,0,2.9364912632757605,388,1
52-148.png,145-66.png,dd,inv,52-148_mask.png,0.5866901999979746,1,4.655723435152049,389,1
103-197F.png,103-135F.png,sd,inv,103-197F_mask.png,0.33051880000857636,0,37.04249644293254,390,1
225_eyes.png,225_eyes.png,isos,up,225_eyes_mask.png,0.43721600002027117,1,3.992709259641317,391,2
65-208F.png,41-20F.png,dd,up,65-208F_mask.png,0.5554907000041567,0,3.4241138792010055,392,2
197-103F.png,197-192F.png,sd,up,197-103F_mask.png,0.46885679999832064,0,13.646572368403794,393,2
192_eyes.png,192_eyes.png,isos,up,192_eyes_mask.png,0.5461290999955963,1,3.170943154762479,394,1
220_eyes.png,220_eyes.png,isos,inv,220_eyes_mask.png,0.4358690000080969,1,5.428835233189813,395,1
147-7.png,146-7.png,ds,inv,147-7_mask.png,0.4819603000069037,1,37.04249644293254,396,1
225_eyes.png,128_eyes.png,isod,inv,225_eyes_mask.png,0.5177837999945041,1,23.36370892508618,397,2
25_eyes.png,7_eyes.png,isod,up,25_eyes_mask.png,0.5529064000002109,1,3.6974979636981815,398,2
139-135F.png,103-197F.png,dd,up,139-135F_mask.png,0.5141457999998238,0,3.170943154762479,399,1
135-103F.png,135-103F.png,ss,up,135-103F_mask.png,0.5252177999936976,0,3.4241138792010055,400,1
8_eyes.png,8_eyes.png,isos,inv,8_eyes_mask.png,0.5358865000016522,1,5.428835233189813,401,1
208_eyes.png,20_eyes.png,isod,inv,208_eyes_mask.png,0.48186460000579245,0,5.0274402453675116,402,1
24-2.png,24-2.png,ss,up,24-2_mask.png,0.46229689999017864,1,3.6974979636981815,403,2
147-25.png,146-7.png,dd,up,147-25_mask.png,0.5388492000056431,1,3.992709259641317,404,1
25-147.png,25-55.png,sd,up,25-147_mask.png,0.5888734000036493,1,15.9126704834961,405,2
8_eyes.png,93_eyes.png,isod,inv,8_eyes_mask.png,0.6372183999919798,1,5.862277928868478,406,1
44-125.png,44-100.png,sd,up,44-125_mask.png,0.4836304000054952,1,12.637577710370472,407,1
7-147.png,7-147.png,ss,inv,7-147_mask.png,0.49513280001701787,1,10.036553609986138,408,2
13-128F.png,96-225F.png,dd,up,13-128F_mask.png,0.4429066000157036,1,3.6974979636981815,409,2
46-93.png,2-93.png,ds,up,46-93_mask.png,0.4085131000028923,1,12.637577710370472,410,1
145-148.png,145-66.png,sd,inv,145-148_mask.png,0.4074380000238307,0,5.862277928868478,411,2
65-208F.png,41-208F.png,ds,up,65-208F_mask.png,0.45450020002317615,1,11.703185684592045,412,1
147_eyes.png,147_eyes.png,isos,up,147_eyes_mask.png,0.5242146000091452,0,3.170943154762479,413,1
13-225F.png,13-225F.png,ss,inv,13-225F_mask.png,0.4065944000030868,1,4.311490469647435,414,1
17-38.png,125-9.png,dd,inv,17-38_mask.png,0.5164749000105076,1,9.294475034930333,415,2
20-65F.png,208-65F.png,ds,up,20-65F_mask.png,0.551175400003558,1,14.736125994561542,416,2
135_eyes.png,135_eyes.png,isos,up,135_eyes_mask.png,0.6488230999966618,0,3.6974979636981815,417,2
65-208F.png,41-208F.png,ds,inv,65-208F_mask.png,0.5421731999958865,0,7.381517178581321,418,2
38_eyes.png,9_eyes.png,isod,inv,38_eyes_mask.png,0.3362135000061244,0,23.36370892508618,419,2
25-55.png,25-55.png,ss,inv,25-55_mask.png,0.45066689999657683,1,8.607263960508302,420,2
151-87.png,151-87.png,ss,up,151-87_mask.png,0.6321546999970451,1,3.4241138792010055,421,2
66_eyes.png,66_eyes.png,isos,inv,66_eyes_mask.png,0.5266026000026613,1,25.229086771816444,422,2
128-96F.png,225-96F.png,ds,inv,128-96F_mask.png,0.4403202999965288,1,37.04249644293254,423,1
111-216F.png,192-216F.png,ds,inv,111-216F_mask.png,0.5262406999827363,0,10.036553609986138,424,2
145-148.png,52-66.png,dd,inv,145-148_mask.png,0.5524774999939837,1,8.607263960508302,425,2
128-96F.png,128-30F.png,sd,inv,128-96F_mask.png,0.593810200021835,1,14.736125994561542,426,2
125_eyes.png,125_eyes.png,isos,inv,125_eyes_mask.png,0.4098560999846086,1,23.36370892508618,427,2
225-30F.png,128-30F.png,ds,up,225-30F_mask.png,0.42514229999505915,0,13.646572368403794,428,2
65-208F.png,65-208F.png,ss,up,65-208F_mask.png,0.4075547000102233,1,3.6974979636981815,429,1
65-208F.png,65-20F.png,sd,up,65-208F_mask.png,0.5265896999917459,1,11.703185684592045,430,1
96-225F.png,96-128F.png,sd,inv,96-225F_mask.png,0.4967856000002939,1,37.04249644293254,431,1
192_eyes.png,192_eyes.png,isos,up,192_eyes_mask.png,0.5784522999892943,1,3.4241138792010055,432,1
225-96F.png,128-30F.png,dd,up,225-96F_mask.png,0.5151274999952875,1,3.6974979636981815,433,1
208_eyes.png,20_eyes.png,isod,up,208_eyes_mask.png,0.5822170000174083,1,3.992709259641317,434,2
65_eyes.png,65_eyes.png,isos,inv,65_eyes_mask.png,0.3824812000093516,1,5.428835233189813,435,1
123-125.png,123-100.png,sd,inv,123-125_mask.png,0.35046789998887107,0,12.637577710370472,436,2
24-76.png,160-76.png,ds,inv,24-76_mask.png,0.3915038999984972,1,37.04249644293254,437,1
93_eyes.png,93_eyes.png,isos,up,93_eyes_mask.png,0.5914769000082742,1,3.992709259641317,438,2
2-8.png,46-8.png,ds,inv,2-8_mask.png,0.41516000000410713,1,37.04249644293254,439,1
52-148.png,52-148.png,ss,up,52-148_mask.png,0.6220600999949966,0,3.4241138792010055,440,1
13_eyes.png,13_eyes.png,isos,up,13_eyes_mask.png,0.43719330002204515,1,3.170943154762479,441,1
94_eyes.png,94_eyes.png,isos,up,94_eyes_mask.png,0.4268049000238534,1,3.6974979636981815,442,2
139-197F.png,139-135F.png,sd,up,139-197F_mask.png,0.5451026999799069,1,15.9126704834961,443,2
38_eyes.png,38_eyes.png,isos,inv,38_eyes_mask.png,0.40318520000437275,1,23.36370892508618,444,2
151-146.png,151-146.png,ss,up,151-146_mask.png,0.4904272999847308,1,3.6974979636981815,445,1
2-93.png,46-8.png,dd,up,2-93_mask.png,0.5102929999993648,1,10.697497963698181,446,1
135_eyes.png,197_eyes.png,isod,inv,135_eyes_mask.png,0.4975616000010632,1,5.428835233189813,447,1
41-20F.png,41-20F.png,ss,inv,41-20F_mask.png,0.493430200003786,1,3.992709259641317,448,1
103-197F.png,139-197F.png,ds,up,103-197F_mask.png,0.5691229999938514,1,11.703185684592045,449,1
7-55.png,7-147.png,sd,inv,7-55_mask.png,0.5858732999768108,1,17.183151257649243,450,2
125-9.png,125-38.png,sd,inv,125-9_mask.png,0.4722680999839213,0,37.04249644293254,451,1
25-55.png,7-55.png,ds,up,25-55_mask.png,0.47686419999809004,1,15.9126704834961,452,2
41-208F.png,65-20F.png,dd,inv,41-208F_mask.png,0.5933073000051081,1,7.970863616012756,453,2
96-128F.png,13-128F.png,ds,up,96-128F_mask.png,0.529094299999997,1,10.837880352311993,454,1
135-103F.png,197-192F.png,dd,inv,135-103F_mask.png,0.5953888999938499,1,7.970863616012756,455,2
128-30F.png,128-30F.png,ss,up,128-30F_mask.png,0.5307924000080675,1,3.4241138792010055,456,2
55_eyes.png,147_eyes.png,isod,up,55_eyes_mask.png,0.6534529000055045,1,3.170943154762479,457,1
103-135F.png,103-135F.png,ss,inv,103-135F_mask.png,0.45889390000957064,1,7.381517178581321,458,2
30_eyes.png,96_eyes.png,isod,up,30_eyes_mask.png,0.5278379000083078,1,10.17094315476248,459,1
135-192F.png,197-192F.png,ds,inv,135-192F_mask.png,0.4744236000115052,1,14.736125994561542,460,2
139-135F.png,139-197F.png,sd,up,139-135F_mask.png,0.7511870000162162,0,10.837880352311993,461,1
129-94F.png,129-94F.png,ss,inv,129-94F_mask.png,0.5922150999831501,1,3.992709259641317,462,1
96-128F.png,96-128F.png,ss,inv,96-128F_mask.png,0.487747400009539,1,14.381517178581321,463,2
66_eyes.png,148_eyes.png,isod,inv,66_eyes_mask.png,0.6762000999879092,1,23.36370892508618,464,2
8_eyes.png,93_eyes.png,isod,inv,8_eyes_mask.png,0.6728205000108574,1,5.0274402453675116,465,1
139-135F.png,103-197F.png,dd,inv,139-135F_mask.png,0.59739609999815,1,3.992709259641317,466,1
145-148.png,145-66.png,sd,up,145-148_mask.png,0.5654393000004347,1,14.736125994561542,467,2
129-94F.png,131-94F.png,ds,up,129-94F_mask.png,0.5734006999991834,1,20.646572368403795,468,2
129-94F.png,131-37F.png,dd,up,129-94F_mask.png,0.6784827999945264,1,3.170943154762479,469,2
197_eyes.png,197_eyes.png,isos,inv,197_eyes_mask.png,0.8991214999987278,1,12.027440245367512,470,1
103-197F.png,139-135F.png,dd,up,103-197F_mask.png,0.6543902000121307,1,3.170943154762479,471,2
225-96F.png,128-30F.png,dd,inv,225-96F_mask.png,0.7082096000085585,1,10.697497963698181,472,1
103-135F.png,139-135F.png,ds,inv,103-135F_mask.png,0.5510816999885719,1,20.646572368403795,473,2
96_eyes.png,30_eyes.png,isod,up,96_eyes_mask.png,0.55277730000671,1,10.697497963698181,474,2
192-220F.png,192-220F.png,ss,up,192-220F_mask.png,0.41007430001627654,1,10.17094315476248,475,2
128_eyes.png,225_eyes.png,isod,inv,128_eyes_mask.png,0.505396299995482,1,23.36370892508618,476,2
125_eyes.png,125_eyes.png,isos,inv,125_eyes_mask.png,0.669003100018017,0,30.36370892508618,477,2
2-93.png,2-8.png,sd,up,2-93_mask.png,0.5221752999932505,1,18.703185684592043,478,1
2-93.png,2-8.png,sd,inv,2-93_mask.png,0.5247378000058234,1,44.04249644293254,479,1
146_eyes.png,87_eyes.png,isod,up,146_eyes_mask.png,0.7444155999983195,1,3.6974979636981815,480,2
46-8.png,46-8.png,ss,inv,46-8_mask.png,0.5383806999889202,1,3.6974979636981815,481,1
17-38.png,17-9.png,sd,inv,17-38_mask.png,0.532505899987882,1,13.646572368403794,482,2
111-220F.png,111-220F.png,ss,inv,111-220F_mask.png,0.3747641000081785,1,7.381517178581321,483,2
160-2.png,24-76.png,dd,inv,160-2_mask.png,0.662795999989612,1,3.6974979636981815,484,1
135_eyes.png,197_eyes.png,isod,up,135_eyes_mask.png,0.5479807999799959,1,3.6974979636981815,485,2
151-146.png,49-146.png,ds,inv,151-146_mask.png,0.477858300000662,1,12.637577710370472,486,2
160-2.png,24-76.png,dd,up,160-2_mask.png,0.5060780000058003,1,3.170943154762479,487,2
208_eyes.png,208_eyes.png,isos,inv,208_eyes_mask.png,0.37374039998394437,1,23.36370892508618,488,2
135-192F.png,135-103F.png,sd,inv,135-192F_mask.png,0.44640289997914806,1,10.837880352311993,489,2
2_eyes.png,2_eyes.png,isos,up,2_eyes_mask.png,0.38841000001411885,1,3.170943154762479,490,1
123-100.png,44-125.png,dd,up,123-100_mask.png,0.476394800003618,1,3.6974979636981815,491,1
55_eyes.png,147_eyes.png,isod,inv,55_eyes_mask.png,0.3690960000094492,0,23.36370892508618,492,2
103-135F.png,103-197F.png,sd,up,103-135F_mask.png,0.5777167000051122,1,13.646572368403794,493,2
151-87.png,49-146.png,dd,up,151-87_mask.png,0.7300173999974504,1,3.4241138792010055,494,1
2_eyes.png,2_eyes.png,isos,inv,2_eyes_mask.png,0.36468470000545494,1,23.36370892508618,495,2
192-216F.png,111-216F.png,ds,up,192-216F_mask.png,0.5177356000058353,1,11.703185684592045,496,1
103_eyes.png,103_eyes.png,isos,inv,103_eyes_mask.png,0.360737999988487,1,5.0274402453675116,497,1
94_eyes.png,94_eyes.png,isos,inv,94_eyes_mask.png,0.41013309999834746,1,4.655723435152049,498,1
44-125.png,44-125.png,ss,up,44-125_mask.png,0.5053257000108715,1,2.9364912632757605,499,2
192-216F.png,111-216F.png,ds,inv,192-216F_mask.png,0.42071050000959076,1,37.04249644293254,500,1
76_eyes.png,2_eyes.png,isod,up,76_eyes_mask.png,0.5877942000224721,1,2.9364912632757605,501,1
2-8.png,2-8.png,ss,inv,2-8_mask.png,0.3158368000003975,1,3.4241138792010055,502,1
111-216F.png,192-216F.png,ds,up,111-216F_mask.png,0.6784001000050921,1,11.703185684592045,503,1
123-125.png,44-100.png,dd,up,123-125_mask.png,0.7787624000047799,1,2.9364912632757605,504,2
208-13F.png,20-65F.png,dd,inv,208-13F_mask.png,0.6591642999846954,1,3.4241138792010055,505,1
139-197F.png,103-197F.png,ds,inv,139-197F_mask.png,0.592378400004236,0,10.036553609986138,506,2
41-208F.png,65-208F.png,ds,inv,41-208F_mask.png,0.6310679000162054,1,37.04249644293254,507,1
128-30F.png,128-96F.png,sd,inv,128-30F_mask.png,0.5399460000044201,0,37.04249644293254,508,1
125-9.png,125-9.png,ss,up,125-9_mask.png,0.9417088000045624,1,3.4241138792010055,509,1
129-37F.png,131-37F.png,ds,up,129-37F_mask.png,0.3994187999924179,1,13.646572368403794,510,2
13-225F.png,96-128F.png,dd,inv,13-225F_mask.png,0.5348617999989074,1,6.8357455957761015,511,2
139-197F.png,103-197F.png,ds,up,139-197F_mask.png,0.9687734000035562,0,13.646572368403794,512,2
225-96F.png,225-96F.png,ss,inv,225-96F_mask.png,0.5374713999917731,1,6.330327047908198,513,2
20_eyes.png,208_eyes.png,isod,up,20_eyes_mask.png,0.5398525999917183,1,2.9364912632757605,514,1
2-93.png,2-93.png,ss,up,2-93_mask.png,0.4936576999898534,1,2.9364912632757605,515,2
148_eyes.png,66_eyes.png,isod,inv,148_eyes_mask.png,0.3777096999983769,0,4.655723435152049,516,1
145-66.png,145-148.png,sd,up,145-66_mask.png,0.7142917000164744,1,10.837880352311993,517,1
41-20F.png,65-208F.png,dd,inv,41-20F_mask.png,0.5975579000078142,1,6.330327047908198,518,2
25-55.png,25-55.png,ss,up,25-55_mask.png,0.9730246000108309,0,3.4241138792010055,519,1
103-197F.png,103-135F.png,sd,up,103-197F_mask.png,0.7897030000167433,1,10.837880352311993,520,1
146_eyes.png,146_eyes.png,isos,up,146_eyes_mask.png,1.0140385999984574,1,2.9364912632757605,521,1
197_eyes.png,197_eyes.png,isos,up,197_eyes_mask.png,0.5813654999947175,1,3.4241138792010055,522,2
147-7.png,147-25.png,sd,inv,147-7_mask.png,0.8298002000083216,1,37.04249644293254,523,1
125_eyes.png,100_eyes.png,isod,inv,125_eyes_mask.png,0.996378600015305,1,5.0274402453675116,524,1
2_eyes.png,76_eyes.png,isod,inv,2_eyes_mask.png,0.6597711000067648,1,23.36370892508618,525,2
220_eyes.png,220_eyes.png,isos,up,220_eyes_mask.png,0.49713629999314435,1,3.4241138792010055,526,2
49-87.png,49-146.png,sd,up,49-87_mask.png,0.6206084000004921,1,14.736125994561542,527,2
135-192F.png,135-192F.png,ss,up,135-192F_mask.png,0.6759511999844108,1,2.7193741793648707,528,2
225-30F.png,128-96F.png,dd,inv,225-30F_mask.png,0.4808097000059206,1,3.4241138792010055,529,1
147-25.png,147-25.png,ss,up,147-25_mask.png,0.6049982999975327,1,3.6974979636981815,530,1
197-192F.png,197-192F.png,ss,inv,197-192F_mask.png,0.5402618999942206,0,3.170943154762479,531,1
96-225F.png,13-225F.png,ds,up,96-225F_mask.png,0.5661056999815628,1,10.837880352311993,532,1
87_eyes.png,87_eyes.png,isos,inv,87_eyes_mask.png,0.4869755999825429,1,23.36370892508618,533,2
151-146.png,151-87.png,sd,up,151-146_mask.png,0.4030334999843035,0,10.837880352311993,534,1
145-148.png,52-148.png,ds,inv,145-148_mask.png,0.40229509997880086,1,37.04249644293254,535,1
225_eyes.png,225_eyes.png,isos,inv,225_eyes_mask.png,0.4581888999964576,1,5.0274402453675116,536,1
13-225F.png,13-128F.png,sd,inv,13-225F_mask.png,0.49493500002427027,1,37.04249644293254,537,1
131-94F.png,131-37F.png,sd,inv,131-94F_mask.png,0.6176935999828856,1,12.637577710370472,538,2
76_eyes.png,2_eyes.png,isod,up,76_eyes_mask.png,0.70466759998817,0,3.170943154762479,539,2
208-13F.png,20-13F.png,ds,inv,208-13F_mask.png,0.683997600019211,1,37.04249644293254,540,1
125-38.png,17-9.png,dd,inv,125-38_mask.png,0.5603125000197906,1,5.862277928868478,541,2
160-2.png,24-2.png,ds,up,160-2_mask.png,0.5377587999973912,1,13.646572368403794,542,2
46-8.png,46-93.png,sd,inv,46-8_mask.png,0.5878194000106305,0,11.703185684592045,543,2
148_eyes.png,148_eyes.png,isos,up,148_eyes_mask.png,0.7720098000136204,0,3.4241138792010055,544,2
131-37F.png,131-94F.png,sd,up,131-37F_mask.png,0.7966372999944724,1,10.837880352311993,545,1
147_eyes.png,55_eyes.png,isod,up,147_eyes_mask.png,0.8607216000091285,0,2.7193741793648707,546,1
13_eyes.png,65_eyes.png,isod,inv,13_eyes_mask.png,0.6499276999966241,1,23.36370892508618,547,2
151-146.png,49-87.png,dd,up,151-146_mask.png,0.518895799992606,1,2.7193741793648707,548,2
87_eyes.png,87_eyes.png,isos,up,87_eyes_mask.png,0.7061305999814067,0,2.9364912632757605,549,1
128-96F.png,225-30F.png,dd,up,128-96F_mask.png,0.5174297000048682,1,3.4241138792010055,550,1
41-208F.png,65-208F.png,ds,up,41-208F_mask.png,0.9838913999847136,0,3.837880352311993,551,1
208_eyes.png,208_eyes.png,isos,up,208_eyes_mask.png,0.5524350999912713,0,3.6974979636981815,552,2
2-8.png,46-93.png,dd,up,2-8_mask.png,0.7376395000028424,1,2.7193741793648707,553,2
147-25.png,146-7.png,dd,inv,147-25_mask.png,0.49194139998871833,0,3.4241138792010055,554,1
7-147.png,25-147.png,ds,inv,7-147_mask.png,1.0476174999785144,1,14.736125994561542,555,2
148_eyes.png,66_eyes.png,isod,inv,148_eyes_mask.png,0.5737107000022661,1,23.36370892508618,556,2
146-25.png,146-25.png,ss,up,146-25_mask.png,0.9658768000081182,1,3.4241138792010055,557,1
52-148.png,52-66.png,sd,inv,52-148_mask.png,0.6785934999934398,1,30.04249644293254,558,1
125-9.png,125-38.png,sd,up,125-9_mask.png,0.5792868999997154,0,13.646572368403794,559,2
225-96F.png,225-96F.png,ss,up,225-96F_mask.png,0.37194839998846874,0,0.01,560,2
192-220F.png,111-220F.png,ds,up,192-220F_mask.png,0.5489000999950804,1,14.736125994561542,561,2
146_eyes.png,87_eyes.png,isod,inv,146_eyes_mask.png,0.7266737000027206,1,4.655723435152049,562,1
125_eyes.png,100_eyes.png,isod,up,125_eyes_mask.png,0.3932935000048019,1,0.01,563,2
225-30F.png,225-30F.png,ss,inv,225-30F_mask.png,0.6569638999935705,1,5.862277928868478,564,2
135_eyes.png,135_eyes.png,isos,inv,135_eyes_mask.png,0.8303022000181954,1,4.655723435152049,565,1
103_eyes.png,192_eyes.png,isod,inv,103_eyes_mask.png,0.3729882999905385,1,0.01,566,1
65_eyes.png,65_eyes.png,isos,up,65_eyes_mask.png,0.6459605999989435,1,3.170943154762479,567,1
8_eyes.png,93_eyes.png,isod,up,8_eyes_mask.png,0.555235999985598,1,0.01,568,1
146-25.png,147-7.png,dd,inv,146-25_mask.png,0.7486009999993257,1,5.428835233189813,569,2
125-38.png,17-9.png,dd,up,125-38_mask.png,0.5022845999919809,0,0.01,570,1
192-216F.png,192-216F.png,ss,inv,192-216F_mask.png,0.6416148000280373,1,0.01,571,2
151-87.png,49-87.png,ds,inv,151-87_mask.png,0.9435493999917526,0,6.646572368403794,572,2
24-76.png,24-76.png,ss,inv,24-76_mask.png,0.6897423999907915,1,0.01,573,1
123-100.png,123-125.png,sd,up,123-100_mask.png,0.6295219000021461,1,7.736125994561542,574,2
25_eyes.png,25_eyes.png,isos,inv,25_eyes_mask.png,0.9325011000037193,1,16.36370892508618,575,2
17-38.png,125-38.png,ds,inv,17-38_mask.png,0.39522520001628436,1,37.04249644293254,576,1
151-87.png,151-87.png,ss,inv,151-87_mask.png,0.699309199990239,0,3.6974979636981815,577,1
2_eyes.png,2_eyes.png,isos,inv,2_eyes_mask.png,0.3910172999894712,1,23.36370892508618,578,2
96-225F.png,13-128F.png,dd,up,96-225F_mask.png,0.5985360000049695,1,2.7193741793648707,579,2
151-146.png,151-87.png,sd,inv,151-146_mask.png,0.4379198999959044,0,13.646572368403794,580,2
13_eyes.png,65_eyes.png,isod,inv,13_eyes_mask.png,0.5962054000119679,1,4.311490469647435,581,1
13_eyes.png,13_eyes.png,isos,inv,13_eyes_mask.png,0.489606500021182,0,4.311490469647435,582,1
20-65F.png,20-13F.png,sd,up,20-65F_mask.png,0.5659961000201292,1,14.736125994561542,583,2
2-8.png,2-93.png,sd,inv,2-8_mask.png,0.5505424999864772,1,37.04249644293254,584,1
24-76.png,160-2.png,dd,up,24-76_mask.png,0.5598897000018042,1,3.4241138792010055,585,1
148_eyes.png,148_eyes.png,isos,inv,148_eyes_mask.png,0.52932589998818,1,21.636252618780404,586,2
146-25.png,147-7.png,dd,up,146-25_mask.png,0.46724019999965094,1,3.170943154762479,587,1
146-7.png,146-7.png,ss,inv,146-7_mask.png,0.5999636000196915,1,3.992709259641317,588,1
225-30F.png,225-30F.png,ss,up,225-30F_mask.png,0.5755356999870855,1,2.518310209153145,589,2
147-25.png,146-25.png,ds,inv,147-25_mask.png,0.5440095000085421,1,17.183151257649243,590,2
139-135F.png,139-135F.png,ss,up,139-135F_mask.png,0.7535418999905232,1,3.170943154762479,591,1
13_eyes.png,65_eyes.png,isod,up,13_eyes_mask.png,0.6673423000029288,1,3.170943154762479,592,1
2-93.png,2-93.png,ss,inv,2-93_mask.png,0.47194669998134486,1,5.428835233189813,593,2
128-96F.png,225-96F.png,ds,up,128-96F_mask.png,0.5249568999861367,1,13.646572368403794,594,2
111-216F.png,192-220F.png,dd,inv,111-216F_mask.png,0.4945736000081524,1,5.0274402453675116,595,2
37_eyes.png,37_eyes.png,isos,up,37_eyes_mask.png,0.5146365000109654,0,3.992709259641317,596,2
46-93.png,2-8.png,dd,inv,46-93_mask.png,0.7895698000211269,0,5.0274402453675116,597,2
125-38.png,125-9.png,sd,up,125-38_mask.png,0.549481800000649,0,13.646572368403794,598,2
9_eyes.png,9_eyes.png,isos,up,9_eyes_mask.png,0.519265600014478,0,4.655723435152049,599,2
216_eyes.png,220_eyes.png,isod,up,216_eyes_mask.png,0.5218519999762066,1,5.0274402453675116,600,2
20-65F.png,20-65F.png,ss,up,20-65F_mask.png,0.6929209999798331,1,2.518310209153145,601,2
111-216F.png,111-220F.png,sd,up,111-216F_mask.png,1.4245620000001509,1,10.837880352311993,602,1
103-135F.png,139-197F.png,dd,up,103-135F_mask.png,0.6308919999864884,1,2.518310209153145,603,2
147-25.png,147-7.png,sd,inv,147-25_mask.png,0.4853149999980815,1,37.04249644293254,604,1
20-65F.png,208-13F.png,dd,inv,20-65F_mask.png,0.6646610999887343,1,3.992709259641317,605,1
25_eyes.png,25_eyes.png,isos,up,25_eyes_mask.png,0.4860081000078935,1,2.9364912632757605,606,1
94_eyes.png,37_eyes.png,isod,inv,94_eyes_mask.png,0.5778291999886278,1,21.636252618780404,607,2
225_eyes.png,225_eyes.png,isos,up,225_eyes_mask.png,0.5226964000030421,1,2.9364912632757605,608,1
145-66.png,145-66.png,ss,up,145-66_mask.png,0.43753129997639917,1,3.170943154762479,609,1
65_eyes.png,13_eyes.png,isod,up,65_eyes_mask.png,0.7479488999815658,1,5.0274402453675116,610,2
197-103F.png,135-103F.png,ds,inv,197-103F_mask.png,0.44551920000230893,1,15.9126704834961,611,2
125-9.png,17-9.png,ds,inv,125-9_mask.png,0.44295229998533614,0,37.04249644293254,612,1
100_eyes.png,100_eyes.png,isos,inv,100_eyes_mask.png,0.6888998000067659,0,4.655723435152049,613,1
49-146.png,151-146.png,ds,up,49-146_mask.png,2.59709070000099,1,10.837880352311993,614,1
147_eyes.png,55_eyes.png,isod,inv,147_eyes_mask.png,0.7329287999891676,1,5.428835233189813,615,1
151-87.png,49-146.png,dd,inv,151-87_mask.png,0.5588773000054061,1,3.6974979636981815,616,1
139-197F.png,139-135F.png,sd,inv,139-197F_mask.png,0.8881316999904811,0,13.646572368403794,617,2
65_eyes.png,13_eyes.png,isod,inv,65_eyes_mask.png,0.6121412000211421,1,21.636252618780404,618,2
52-148.png,145-148.png,ds,up,52-148_mask.png,0.5955017000087537,1,14.736125994561542,619,2
225-30F.png,225-96F.png,sd,up,225-30F_mask.png,0.6654704999818932,1,10.837880352311993,620,1
208_eyes.png,20_eyes.png,isod,up,208_eyes_mask.png,0.5426531999837607,0,2.9364912632757605,621,1
145-148.png,52-148.png,ds,up,145-148_mask.png,0.9121772999933455,0,10.837880352311993,622,1
17-9.png,17-9.png,ss,inv,17-9_mask.png,0.6915116000163835,1,5.428835233189813,623,2
208-13F.png,208-13F.png,ss,inv,208-13F_mask.png,0.6752367000153754,1,3.6974979636981815,624,1
111-216F.png,111-220F.png,sd,inv,111-216F_mask.png,0.5275316999759525,1,18.555068267735685,625,2
125_eyes.png,125_eyes.png,isos,up,125_eyes_mask.png,0.5623727000202052,1,4.655723435152049,626,2
20-65F.png,208-13F.png,dd,up,20-65F_mask.png,0.4273836000065785,1,2.9364912632757605,627,1
20-65F.png,208-65F.png,ds,inv,20-65F_mask.png,0.43362990001332946,1,37.04249644293254,628,1
146-7.png,146-25.png,sd,inv,146-7_mask.png,0.47959989999071695,1,37.04249644293254,629,1
220_eyes.png,216_eyes.png,isod,inv,220_eyes_mask.png,0.5241908000025433,1,5.0274402453675116,630,1
197-192F.png,135-192F.png,ds,up,197-192F_mask.png,0.39049940000404604,1,14.736125994561542,631,2
128_eyes.png,225_eyes.png,isod,up,128_eyes_mask.png,0.734535199997481,0,3.170943154762479,632,1
38_eyes.png,38_eyes.png,isos,up,38_eyes_mask.png,0.5111810000089463,0,3.170943154762479,633,1
103_eyes.png,103_eyes.png,isos,inv,103_eyes_mask.png,0.5385543000011239,1,21.636252618780404,634,2
225-96F.png,225-30F.png,sd,up,225-96F_mask.png,0.6284554000012577,1,10.837880352311993,635,1
192-216F.png,192-216F.png,ss,up,192-216F_mask.png,0.4668610999942757,1,2.518310209153145,636,2
46-93.png,46-8.png,sd,up,46-93_mask.png,0.479625500011025,1,13.646572368403794,637,2
111-216F.png,111-216F.png,ss,inv,111-216F_mask.png,0.708195400016848,1,3.6974979636981815,638,1
2-93.png,46-93.png,ds,inv,2-93_mask.png,0.5832064000132959,1,37.04249644293254,639,1
17-9.png,125-9.png,ds,inv,17-9_mask.png,0.5491802000033204,1,15.9126704834961,640,2
148_eyes.png,66_eyes.png,isod,up,148_eyes_mask.png,0.5270689000026323,1,4.655723435152049,641,2
220_eyes.png,216_eyes.png,isod,inv,220_eyes_mask.png,0.5295637999952305,1,20.036520266739068,642,2
96-128F.png,96-128F.png,ss,up,96-128F_mask.png,0.42783289999351837,1,2.9364912632757605,643,1
17-9.png,17-9.png,ss,up,17-9_mask.png,0.9066748000041116,1,2.9364912632757605,644,1
135-103F.png,197-192F.png,dd,up,135-103F_mask.png,0.5234450999996625,1,2.3321124241189017,645,2
146_eyes.png,146_eyes.png,isos,inv,146_eyes_mask.png,1.1022005999984685,0,5.0274402453675116,646,1
135-103F.png,135-192F.png,sd,up,135-103F_mask.png,0.561672500014538,0,13.646572368403794,647,2
30_eyes.png,96_eyes.png,isod,inv,30_eyes_mask.png,0.5069338000030257,1,5.428835233189813,648,1
46-8.png,2-93.png,dd,inv,46-8_mask.png,0.5261567000125069,1,5.428835233189813,649,2
139-135F.png,139-197F.png,sd,inv,139-135F_mask.png,0.48056669998914003,1,14.736125994561542,650,2
208-65F.png,20-13F.png,dd,inv,208-65F_mask.png,0.47684529999969527,1,3.4241138792010055,651,1
7_eyes.png,25_eyes.png,isod,up,7_eyes_mask.png,0.6175193999952171,1,4.311490469647435,652,2
49-87.png,151-146.png,dd,up,49-87_mask.png,0.7122188000066672,0,9.93649126327576,653,1
208-65F.png,20-65F.png,ds,up,208-65F_mask.png,0.5075969999888912,1,21.73612599456154,654,2
111-220F.png,192-220F.png,ds,up,111-220F_mask.png,0.5348573999945074,1,10.837880352311993,655,1
76_eyes.png,76_eyes.png,isos,up,76_eyes_mask.png,0.5213188999914564,1,11.311490469647435,656,2
103_eyes.png,103_eyes.png,isos,up,103_eyes_mask.png,0.6443001000152435,1,3.4241138792010055,657,1
103-197F.png,139-135F.png,dd,inv,103-197F_mask.png,1.4738341999764089,0,10.424113879201006,658,1
52-66.png,52-66.png,ss,up,52-66_mask.png,0.4625258000160102,1,2.3321124241189017,659,2
20-13F.png,20-65F.png,sd,up,20-13F_mask.png,0.715435600024648,0,10.837880352311993,660,1
197-103F.png,197-103F.png,ss,inv,197-103F_mask.png,0.5744869000045583,1,5.0274402453675116,661,2
17-9.png,125-38.png,dd,inv,17-9_mask.png,0.6791169999924023,0,5.0274402453675116,662,2
192-220F.png,192-216F.png,sd,inv,192-220F_mask.png,0.5554755000048317,1,44.04249644293254,663,1
135_eyes.png,135_eyes.png,isos,inv,135_eyes_mask.png,0.4212857999955304,1,20.036520266739068,664,2
7_eyes.png,7_eyes.png,isos,inv,7_eyes_mask.png,0.47515489999204874,1,12.428835233189812,665,1
225_eyes.png,128_eyes.png,isod,up,225_eyes_mask.png,0.58387900001253,1,10.424113879201006,666,1
65-20F.png,41-20F.png,ds,up,65-20F_mask.png,2.1118077999853995,0,18.703185684592043,667,1
49-87.png,49-87.png,ss,inv,49-87_mask.png,0.5791304000013042,1,12.862277928868478,668,2
225-30F.png,128-96F.png,dd,up,225-30F_mask.png,0.5075025999976788,1,9.332112424118902,669,2
38_eyes.png,9_eyes.png,isod,inv,38_eyes_mask.png,0.3589710000087507,0,25.555068267735685,670,2
208-65F.png,20-65F.png,ds,inv,208-65F_mask.png,0.4480117000057362,1,20.646572368403795,671,2
145-66.png,52-66.png,ds,inv,145-66_mask.png,0.3239809999940917,1,13.646572368403794,672,2
129-37F.png,129-37F.png,ss,up,129-37F_mask.png,0.5905090000014752,1,2.9364912632757605,673,1
7-147.png,25-55.png,dd,up,7-147_mask.png,0.8044994999945629,1,2.3321124241189017,674,2
9_eyes.png,38_eyes.png,isod,inv,9_eyes_mask.png,0.7478728000132833,0,18.555068267735685,675,2
146-7.png,147-25.png,dd,up,146-7_mask.png,0.30959220000659116,0,2.3321124241189017,676,2
44-100.png,123-125.png,dd,inv,44-100_mask.png,1.1366216999886092,1,5.862277928868478,677,2
13_eyes.png,13_eyes.png,isos,up,13_eyes_mask.png,0.4828700000070967,1,4.311490469647435,678,2
44-100.png,44-125.png,sd,up,44-100_mask.png,0.5829198000137694,1,14.736125994561542,679,2
9_eyes.png,9_eyes.png,isos,up,9_eyes_mask.png,0.6151258999889251,1,3.4241138792010055,680,1
151-87.png,151-146.png,sd,up,151-87_mask.png,0.5657878999772947,0,11.703185684592045,681,1
7-55.png,25-147.png,dd,up,7-55_mask.png,0.750816699990537,1,2.7193741793648707,682,1
145-66.png,52-148.png,dd,inv,145-66_mask.png,0.88013669999782,0,5.428835233189813,683,2
37_eyes.png,94_eyes.png,isod,up,37_eyes_mask.png,0.6528751000005286,1,4.311490469647435,684,2
225_eyes.png,225_eyes.png,isos,inv,225_eyes_mask.png,0.44264389999443665,1,21.636252618780404,685,2
7-55.png,25-55.png,ds,up,7-55_mask.png,0.9365401999966707,1,14.736125994561542,686,2
208_eyes.png,20_eyes.png,isod,inv,208_eyes_mask.png,1.0829345000092871,0,5.428835233189813,687,1
7_eyes.png,7_eyes.png,isos,inv,7_eyes_mask.png,0.47116310001001693,1,5.862277928868478,688,1
208-65F.png,208-13F.png,sd,inv,208-65F_mask.png,0.6599477999843657,1,13.646572368403794,689,2
125-38.png,125-9.png,sd,inv,125-38_mask.png,0.4937805999943521,0,37.04249644293254,690,1
46-8.png,46-93.png,sd,up,46-8_mask.png,0.5372216000105254,1,11.703185684592045,691,1
96-225F.png,13-128F.png,dd,inv,96-225F_mask.png,0.6832865999895148,1,3.4241138792010055,692,1
147-25.png,147-25.png,ss,inv,147-25_mask.png,0.8453684999840334,1,6.330327047908198,693,2
225-96F.png,128-96F.png,ds,inv,225-96F_mask.png,0.403460500005167,1,37.04249644293254,694,1
25_eyes.png,7_eyes.png,isod,up,25_eyes_mask.png,0.4671579000132624,0,3.4241138792010055,695,1
147_eyes.png,147_eyes.png,isos,up,147_eyes_mask.png,0.6622429999988526,1,3.4241138792010055,696,1
55_eyes.png,55_eyes.png,isos,inv,55_eyes_mask.png,0.5075952000042889,1,5.862277928868478,697,1
135_eyes.png,197_eyes.png,isod,inv,135_eyes_mask.png,0.68609619999188,1,5.428835233189813,698,1
24-2.png,24-2.png,ss,inv,24-2_mask.png,0.7861195000004955,1,5.862277928868478,699,2
87_eyes.png,87_eyes.png,isos,up,87_eyes_mask.png,0.5384345000202302,1,3.992709259641317,700,2
13-128F.png,96-128F.png,ds,up,13-128F_mask.png,0.6124225999810733,1,11.703185684592045,701,1
25-147.png,7-147.png,ds,up,25-147_mask.png,0.6258083999855444,1,11.703185684592045,702,1
13_eyes.png,13_eyes.png,isos,inv,13_eyes_mask.png,0.43240620000869967,1,20.036520266739068,703,2
160-2.png,160-76.png,sd,inv,160-2_mask.png,0.3748578999948222,0,37.04249644293254,704,1
145-66.png,145-66.png,ss,inv,145-66_mask.png,0.631545099982759,1,3.4241138792010055,705,1
17-38.png,17-38.png,ss,up,17-38_mask.png,1.0697741000039969,0,2.7193741793648707,706,1
25-55.png,25-147.png,sd,up,25-55_mask.png,0.6663555999984965,1,13.646572368403794,707,2
100_eyes.png,125_eyes.png,isod,up,100_eyes_mask.png,0.5354782000067644,1,3.992709259641317,708,2
123-125.png,44-125.png,ds,up,123-125_mask.png,0.5854268999828491,0,13.646572368403794,709,2
52-66.png,145-66.png,ds,inv,52-66_mask.png,0.5214162000047509,1,12.637577710370472,710,2
225_eyes.png,128_eyes.png,isod,inv,225_eyes_mask.png,0.3726866999932099,0,20.036520266739068,711,2
111-216F.png,192-220F.png,dd,up,111-216F_mask.png,0.5411401000164915,0,2.9364912632757605,712,1
7-55.png,25-55.png,ds,inv,7-55_mask.png,1.0711759000259917,1,37.04249644293254,713,1
20_eyes.png,208_eyes.png,isod,up,20_eyes_mask.png,0.7003445999871474,0,3.4241138792010055,714,1
46-93.png,46-93.png,ss,up,46-93_mask.png,0.4873989000043366,1,2.3321124241189017,715,2
25-147.png,25-55.png,sd,inv,25-147_mask.png,0.6194219999888446,1,12.637577710370472,716,2
2-93.png,46-8.png,dd,inv,2-93_mask.png,0.5544245000055525,0,3.4241138792010055,717,1
13-128F.png,13-128F.png,ss,inv,13-128F_mask.png,0.4192201000114437,1,3.4241138792010055,718,1
146-7.png,146-7.png,ss,up,146-7_mask.png,0.42550529999425635,1,2.3321124241189017,719,2
52-148.png,52-148.png,ss,inv,52-148_mask.png,0.42746169999009,1,3.4241138792010055,720,1
103-135F.png,103-135F.png,ss,up,103-135F_mask.png,0.4737396000127774,1,2.3321124241189017,721,2
128_eyes.png,128_eyes.png,isos,up,128_eyes_mask.png,0.5423598999914248,0,3.6974979636981815,722,2
7_eyes.png,7_eyes.png,isos,up,7_eyes_mask.png,0.5283688000054099,0,3.6974979636981815,723,1
160-2.png,24-2.png,ds,inv,160-2_mask.png,0.3787538000033237,1,37.04249644293254,724,1
41-208F.png,41-208F.png,ss,up,41-208F_mask.png,0.9470616999897175,1,2.3321124241189017,725,2
135-103F.png,197-103F.png,ds,inv,135-103F_mask.png,0.40476949998992495,1,37.04249644293254,726,1
192-220F.png,192-216F.png,sd,up,192-220F_mask.png,0.588039199996274,1,11.703185684592045,727,1
7_eyes.png,25_eyes.png,isod,inv,7_eyes_mask.png,0.5484067999932449,1,21.636252618780404,728,2
25-55.png,25-147.png,sd,inv,25-55_mask.png,0.5020812000147998,0,37.04249644293254,729,1
220_eyes.png,220_eyes.png,isos,inv,220_eyes_mask.png,0.45776660001138225,1,21.636252618780404,730,2
216_eyes.png,216_eyes.png,isos,inv,216_eyes_mask.png,0.7253819000034127,1,5.428835233189813,731,1
129-94F.png,131-37F.png,dd,inv,129-94F_mask.png,0.6396842999965884,1,3.4241138792010055,732,1
13-225F.png,96-128F.png,dd,up,13-225F_mask.png,0.7738040999975055,0,3.170943154762479,733,1
65_eyes.png,13_eyes.png,isod,up,65_eyes_mask.png,0.5183954000240192,1,3.992709259641317,734,1
192_eyes.png,192_eyes.png,isos,inv,192_eyes_mask.png,0.5212852999975439,1,21.636252618780404,735,2
131-94F.png,129-94F.png,ds,up,131-94F_mask.png,0.5158030999882612,1,10.837880352311993,736,1
17-38.png,17-9.png,sd,up,17-38_mask.png,0.5340132999990601,0,14.736125994561542,737,2
131-37F.png,129-37F.png,ds,up,131-37F_mask.png,0.600190900004236,1,10.837880352311993,738,1
145-148.png,145-148.png,ss,inv,145-148_mask.png,0.5277013999875635,1,5.862277928868478,739,2
55_eyes.png,147_eyes.png,isod,inv,55_eyes_mask.png,0.49849619998713024,0,13.036520266739068,740,2
125-38.png,125-38.png,ss,up,125-38_mask.png,0.9497646999952849,1,3.170943154762479,741,1
160-76.png,24-2.png,dd,inv,160-76_mask.png,0.5832670999807306,1,3.4241138792010055,742,1
96_eyes.png,30_eyes.png,isod,inv,96_eyes_mask.png,0.5518913000123575,1,5.428835233189813,743,1
2-8.png,46-8.png,ds,up,2-8_mask.png,0.8730739999737125,0,14.736125994561542,744,2
20-13F.png,208-65F.png,dd,up,20-13F_mask.png,0.6620325999974739,0,2.3321124241189017,745,2
192_eyes.png,103_eyes.png,isod,up,192_eyes_mask.png,0.5795062999823131,1,3.992709259641317,746,2
192-220F.png,192-220F.png,ss,inv,192-220F_mask.png,0.3160057999775745,1,0.01,747,1
128-30F.png,225-96F.png,dd,up,128-30F_mask.png,0.23115219999453984,1,0.01,748,2
49-87.png,151-87.png,ds,inv,49-87_mask.png,0.6694777999946382,1,11.703185684592045,749,2
2_eyes.png,2_eyes.png,isos,up,2_eyes_mask.png,0.7145592000160832,0,3.992709259641317,750,2
13-128F.png,96-225F.png,dd,inv,13-128F_mask.png,0.5414932999992743,1,5.428835233189813,751,2
208-13F.png,208-65F.png,sd,inv,208-13F_mask.png,0.4950472999771591,0,11.703185684592045,752,2
139-135F.png,103-135F.png,ds,inv,139-135F_mask.png,0.4906454000156373,1,12.637577710370472,753,2
225-30F.png,225-96F.png,sd,inv,225-30F_mask.png,0.6863960000046063,0,5.637577710370472,754,2
128_eyes.png,225_eyes.png,isod,inv,128_eyes_mask.png,0.6828056999947876,1,5.0274402453675116,755,1
17-9.png,125-38.png,dd,up,17-9_mask.png,0.758947199996328,1,3.170943154762479,756,1
208-13F.png,208-65F.png,sd,up,208-13F_mask.png,0.6877072999777738,1,3.837880352311993,757,1
146_eyes.png,146_eyes.png,isos,inv,146_eyes_mask.png,0.5000817000109237,0,0.01,758,1
30_eyes.png,96_eyes.png,isod,up,30_eyes_mask.png,0.27170670000487007,0,0.01,759,2
49-146.png,49-87.png,sd,inv,49-146_mask.png,0.6043267000059132,1,30.04249644293254,760,1
135_eyes.png,135_eyes.png,isos,up,135_eyes_mask.png,0.5560084999888204,0,3.992709259641317,761,1
208-13F.png,208-13F.png,ss,up,208-13F_mask.png,0.12530790001619607,1,0.01,762,1
44-125.png,123-125.png,ds,up,44-125_mask.png,0.5915692000126,1,15.9126704834961,763,2
66_eyes.png,148_eyes.png,isod,up,66_eyes_mask.png,0.38385320000816137,0,0.01,764,1
96-225F.png,96-225F.png,ss,inv,96-225F_mask.png,0.43966120001277886,1,5.428835233189813,765,2
129-37F.png,129-94F.png,sd,up,129-37F_mask.png,0.5816632000205573,1,7.736125994561542,766,2
129-37F.png,131-94F.png,dd,inv,129-37F_mask.png,0.5260705999971833,0,0.01,767,2
